"USUBJID","STUDYID","SITEID","AGE","SEX","RACE","ETHNIC","WTBL","HTBL","ARM","ACTARM","TRTSDT","BMIBL","BSABL","DOSE","CREATBL","CRCLBL","EGFRBL","TBILBL","ASTBL","ALTBL","SAFFL","ITTFL","PPROTFL","EXPOSURE_VAR","EXPOSURE_LOG","EXPOSURE_STD","EXPOSURE_TERTILE","EXPOSURE_QUARTILE","EXPOSURE_MEDIAN","PARAMCD","PARAM","AVAL","AVALU","EVENT","CNSR","ADT","ADY","ATPT","ATPTN","AVISIT","AVISITN","ANL01FL","ANL02FL","EXPOSURE_CAT"
"PROTOCOL001-001-00001","PROTOCOL001","001-03",50,"M","WHITE","NOT HISPANIC OR LATINO",103.3,175,"DRUG 100mg","DRUG 150mg",2023-02-13,33.7,2.18,100,0.69,150,54,0.37,30,25,"Y","Y","Y",13.7111681005143,2.61821069056588,-0.829027488863656,"Low","Q1","Below Median","OS","Overall Survival",354,"DAYS",1,0,2024-02-02,355,"BASELINE",0,"DAY 1",1,"N","Y","Low"
"PROTOCOL001-001-00001","PROTOCOL001","001-03",50,"M","WHITE","NOT HISPANIC OR LATINO",103.3,175,"DRUG 100mg","DRUG 150mg",2023-02-13,33.7,2.18,100,0.69,150,54,0.37,30,25,"Y","Y","Y",13.7111681005143,2.61821069056588,-0.829027488863656,"Low","Q1","Below Median","PFS","Progression-Free Survival",150,"DAYS",1,0,2023-07-13,151,"BASELINE",0,"DAY 1",1,"Y","N","Low"
"PROTOCOL001-001-00002","PROTOCOL001","001-10",52,"M","WHITE","NOT HISPANIC OR LATINO",54.5,160,"DRUG 50mg","DRUG 50mg",2023-01-21,21.3,1.56,50,1.22,54.6,98,0.68,32,32,"Y","Y","Y",14.3809741078425,2.66590609046055,-0.784317774493564,"Low","Q1","Below Median","OS","Overall Survival",181,"DAYS",1,0,2023-07-21,182,"BASELINE",0,"DAY 1",1,"N","Y","Low"
"PROTOCOL001-001-00002","PROTOCOL001","001-10",52,"M","WHITE","NOT HISPANIC OR LATINO",54.5,160,"DRUG 50mg","DRUG 50mg",2023-01-21,21.3,1.56,50,1.22,54.6,98,0.68,32,32,"Y","Y","Y",14.3809741078425,2.66590609046055,-0.784317774493564,"Low","Q1","Below Median","PFS","Progression-Free Survival",84,"DAYS",1,0,2023-04-15,85,"BASELINE",0,"DAY 1",1,"Y","N","Low"
"PROTOCOL001-001-00003","PROTOCOL001","001-08",62,"M","WHITE","NOT HISPANIC OR LATINO",83.2,149,"DRUG 150mg","DRUG 150mg",2023-02-26,37.5,1.77,150,0.77,117.1,102,0.8,30,28,"Y","Y","Y",23.4215582420808,3.15365689063091,-0.180856578328909,"Medium","Q3","Above Median","OS","Overall Survival",282,"DAYS",1,0,2023-12-05,283,"BASELINE",0,"DAY 1",1,"N","Y","Medium"
"PROTOCOL001-001-00003","PROTOCOL001","001-08",62,"M","WHITE","NOT HISPANIC OR LATINO",83.2,149,"DRUG 150mg","DRUG 150mg",2023-02-26,37.5,1.77,150,0.77,117.1,102,0.8,30,28,"Y","Y","Y",23.4215582420808,3.15365689063091,-0.180856578328909,"Medium","Q3","Above Median","PFS","Progression-Free Survival",103,"DAYS",1,0,2023-06-09,104,"BASELINE",0,"DAY 1",1,"Y","N","Medium"
"PROTOCOL001-001-00004","PROTOCOL001","001-10",55,"M","BLACK OR AFRICAN AMERICAN","NOT HISPANIC OR LATINO",56.4,158,"DRUG 100mg","DRUG 50mg",2023-03-20,22.6,1.57,100,1.02,65.3,86,0.89,20,23,"Y","Y","Y",16.6564655893933,2.81279846473561,-0.632428163055881,"Low","Q2","Below Median","OS","Overall Survival",281,"DAYS",1,0,2023-12-26,282,"BASELINE",0,"DAY 1",1,"N","Y","Low"
"PROTOCOL001-001-00004","PROTOCOL001","001-10",55,"M","BLACK OR AFRICAN AMERICAN","NOT HISPANIC OR LATINO",56.4,158,"DRUG 100mg","DRUG 50mg",2023-03-20,22.6,1.57,100,1.02,65.3,86,0.89,20,23,"Y","Y","Y",16.6564655893933,2.81279846473561,-0.632428163055881,"Low","Q2","Below Median","PFS","Progression-Free Survival",131,"DAYS",1,0,2023-07-29,132,"BASELINE",0,"DAY 1",1,"Y","N","Low"
"PROTOCOL001-001-00005","PROTOCOL001","001-08",52,"M","WHITE","NOT HISPANIC OR LATINO",103.2,165,"DRUG 50mg","DRUG 50mg",2023-07-13,37.9,2.09,50,1.08,116.8,90,1.03,28,28,"Y","Y","Y",7.83005997330017,2.05797016939869,-1.22159289089133,"Low","Q1","Below Median","OS","Overall Survival",143,"DAYS",1,0,2023-12-03,144,"BASELINE",0,"DAY 1",1,"N","Y","Low"
"PROTOCOL001-001-00005","PROTOCOL001","001-08",52,"M","WHITE","NOT HISPANIC OR LATINO",103.2,165,"DRUG 50mg","DRUG 50mg",2023-07-13,37.9,2.09,50,1.08,116.8,90,1.03,28,28,"Y","Y","Y",7.83005997330017,2.05797016939869,-1.22159289089133,"Low","Q1","Below Median","PFS","Progression-Free Survival",72,"DAYS",1,0,2023-09-23,73,"BASELINE",0,"DAY 1",1,"Y","N","Low"
"PROTOCOL001-001-00006","PROTOCOL001","001-02",46,"M","WHITE","NOT HISPANIC OR LATINO",53.3,158,"DRUG 50mg","DRUG 100mg",2023-04-24,21.4,1.53,50,1.12,62.1,84,1.09,32,29,"Y","Y","Y",11.8250695529672,2.47022181621839,-0.954925026974787,"Low","Q1","Below Median","OS","Overall Survival",437,"DAYS",1,0,2024-07-04,438,"BASELINE",0,"DAY 1",1,"N","Y","Low"
"PROTOCOL001-001-00006","PROTOCOL001","001-02",46,"M","WHITE","NOT HISPANIC OR LATINO",53.3,158,"DRUG 50mg","DRUG 100mg",2023-04-24,21.4,1.53,50,1.12,62.1,84,1.09,32,29,"Y","Y","Y",11.8250695529672,2.47022181621839,-0.954925026974787,"Low","Q1","Below Median","PFS","Progression-Free Survival",18,"DAYS",1,0,2023-05-12,19,"BASELINE",0,"DAY 1",1,"Y","N","Low"
"PROTOCOL001-001-00007","PROTOCOL001","001-06",55,"F","WHITE","NOT HISPANIC OR LATINO",72.7,187,"DRUG 50mg","DRUG 100mg",2023-01-24,20.8,1.97,50,0.66,110.5,60,0.62,39,19,"Y","Y","Y",11.2887384451451,2.42380563100978,-0.990725259245276,"Low","Q1","Below Median","OS","Overall Survival",232,"DAYS",1,0,2023-09-13,233,"BASELINE",0,"DAY 1",1,"N","Y","Low"
"PROTOCOL001-001-00007","PROTOCOL001","001-06",55,"F","WHITE","NOT HISPANIC OR LATINO",72.7,187,"DRUG 50mg","DRUG 100mg",2023-01-24,20.8,1.97,50,0.66,110.5,60,0.62,39,19,"Y","Y","Y",11.2887384451451,2.42380563100978,-0.990725259245276,"Low","Q1","Below Median","PFS","Progression-Free Survival",145,"DAYS",1,0,2023-06-18,146,"BASELINE",0,"DAY 1",1,"Y","N","Low"
"PROTOCOL001-001-00008","PROTOCOL001","001-06",66,"M","WHITE","NOT HISPANIC OR LATINO",60.8,166,"DRUG 50mg","DRUG 50mg",2023-06-20,22.1,1.68,50,1.18,53,111,1.11,35,15,"Y","Y","Y",13.8615351373559,2.62911774789928,-0.818990452476535,"Low","Q1","Below Median","OS","Overall Survival",466,"DAYS",1,0,2024-09-28,467,"BASELINE",0,"DAY 1",1,"N","Y","Low"
"PROTOCOL001-001-00008","PROTOCOL001","001-06",66,"M","WHITE","NOT HISPANIC OR LATINO",60.8,166,"DRUG 50mg","DRUG 50mg",2023-06-20,22.1,1.68,50,1.18,53,111,1.11,35,15,"Y","Y","Y",13.8615351373559,2.62911774789928,-0.818990452476535,"Low","Q1","Below Median","PFS","Progression-Free Survival",321,"DAYS",1,0,2024-05-06,322,"BASELINE",0,"DAY 1",1,"Y","N","Low"
"PROTOCOL001-001-00009","PROTOCOL001","001-07",43,"M","WHITE","NOT HISPANIC OR LATINO",79.7,169,"DRUG 50mg","DRUG 50mg",2023-02-27,27.9,1.9,50,0.5,150,95,1.14,24,26,"Y","Y","Y",4.91048666444737,1.59137305389006,-1.41647512140764,"Low","Q1","Below Median","OS","Overall Survival",384,"DAYS",1,0,2024-03-17,385,"BASELINE",0,"DAY 1",1,"N","Y","Low"
"PROTOCOL001-001-00009","PROTOCOL001","001-07",43,"M","WHITE","NOT HISPANIC OR LATINO",79.7,169,"DRUG 50mg","DRUG 50mg",2023-02-27,27.9,1.9,50,0.5,150,95,1.14,24,26,"Y","Y","Y",4.91048666444737,1.59137305389006,-1.41647512140764,"Low","Q1","Below Median","PFS","Progression-Free Survival",71,"DAYS",1,0,2023-05-09,72,"BASELINE",0,"DAY 1",1,"Y","N","Low"
"PROTOCOL001-001-00010","PROTOCOL001","001-10",79,"M","WHITE","NOT HISPANIC OR LATINO",79.1,163,"DRUG 150mg","DRUG 100mg",2023-05-26,29.8,1.85,150,0.81,82.7,89,1.03,33,10,"Y","Y","Y",34.7523757357551,3.54824793617047,0.575478253218153,"High","Q4","Above Median","OS","Overall Survival",234,"DAYS",1,0,2024-01-15,235,"BASELINE",0,"DAY 1",1,"N","Y","High"
"PROTOCOL001-001-00010","PROTOCOL001","001-10",79,"M","WHITE","NOT HISPANIC OR LATINO",79.1,163,"DRUG 150mg","DRUG 100mg",2023-05-26,29.8,1.85,150,0.81,82.7,89,1.03,33,10,"Y","Y","Y",34.7523757357551,3.54824793617047,0.575478253218153,"High","Q4","Above Median","PFS","Progression-Free Survival",101,"DAYS",1,0,2023-09-04,102,"BASELINE",0,"DAY 1",1,"Y","N","High"
"PROTOCOL001-001-00011","PROTOCOL001","001-01",58,"M","WHITE","NOT HISPANIC OR LATINO",70.3,163,"DRUG 100mg","DRUG 50mg",2023-06-16,26.5,1.76,100,1.16,69,83,0.54,26,43,"Y","Y","Y",36.9140391833632,3.60859194436157,0.719769815624909,"High","Q4","Above Median","OS","Overall Survival",396,"DAYS",1,0,2024-07-16,397,"BASELINE",0,"DAY 1",1,"N","Y","High"
"PROTOCOL001-001-00011","PROTOCOL001","001-01",58,"M","WHITE","NOT HISPANIC OR LATINO",70.3,163,"DRUG 100mg","DRUG 50mg",2023-06-16,26.5,1.76,100,1.16,69,83,0.54,26,43,"Y","Y","Y",36.9140391833632,3.60859194436157,0.719769815624909,"High","Q4","Above Median","PFS","Progression-Free Survival",133,"DAYS",1,0,2023-10-27,134,"BASELINE",0,"DAY 1",1,"Y","N","High"
"PROTOCOL001-001-00012","PROTOCOL001","001-08",60,"M","BLACK OR AFRICAN AMERICAN","HISPANIC OR LATINO",69.2,172,"DRUG 100mg","DRUG 150mg",2023-03-15,23.4,1.82,100,0.81,94.9,88,1.29,43,31,"Y","Y","Y",21.6992534845677,3.07727785832184,-0.295820841002236,"Medium","Q2","Below Median","OS","Overall Survival",357,"DAYS",1,0,2024-03-06,358,"BASELINE",0,"DAY 1",1,"N","Y","Medium"
"PROTOCOL001-001-00012","PROTOCOL001","001-08",60,"M","BLACK OR AFRICAN AMERICAN","HISPANIC OR LATINO",69.2,172,"DRUG 100mg","DRUG 150mg",2023-03-15,23.4,1.82,100,0.81,94.9,88,1.29,43,31,"Y","Y","Y",21.6992534845677,3.07727785832184,-0.295820841002236,"Medium","Q2","Below Median","PFS","Progression-Free Survival",17,"DAYS",1,0,2023-04-01,18,"BASELINE",0,"DAY 1",1,"Y","N","Medium"
"PROTOCOL001-001-00013","PROTOCOL001","001-07",74,"F","WHITE","NOT HISPANIC OR LATINO",53.6,174,"DRUG 50mg","DRUG 100mg",2023-04-26,17.7,1.64,50,1.62,30,90,0.56,39,12,"Y","Y","Y",17.6852234565334,2.87272945794846,-0.563758324486823,"Medium","Q2","Below Median","OS","Overall Survival",390,"DAYS",1,0,2024-05-20,391,"BASELINE",0,"DAY 1",1,"N","Y","Medium"
"PROTOCOL001-001-00013","PROTOCOL001","001-07",74,"F","WHITE","NOT HISPANIC OR LATINO",53.6,174,"DRUG 50mg","DRUG 100mg",2023-04-26,17.7,1.64,50,1.62,30,90,0.56,39,12,"Y","Y","Y",17.6852234565334,2.87272945794846,-0.563758324486823,"Medium","Q2","Below Median","PFS","Progression-Free Survival",119,"DAYS",1,0,2023-08-23,120,"BASELINE",0,"DAY 1",1,"Y","N","Medium"
"PROTOCOL001-001-00014","PROTOCOL001","001-06",58,"F","WHITE","NOT HISPANIC OR LATINO",89.5,181,"DRUG 150mg","DRUG 50mg",2023-05-01,27.3,2.1,150,1.15,75.3,35,1.25,32,38,"Y","Y","Y",26.9540827298123,3.29413477863855,0.0549402928903,"Medium","Q3","Above Median","OS","Overall Survival",388,"DAYS",1,0,2024-05-23,389,"BASELINE",0,"DAY 1",1,"N","Y","Medium"
"PROTOCOL001-001-00014","PROTOCOL001","001-06",58,"F","WHITE","NOT HISPANIC OR LATINO",89.5,181,"DRUG 150mg","DRUG 50mg",2023-05-01,27.3,2.1,150,1.15,75.3,35,1.25,32,38,"Y","Y","Y",26.9540827298123,3.29413477863855,0.0549402928903,"Medium","Q3","Above Median","PFS","Progression-Free Survival",344,"DAYS",1,0,2024-04-09,345,"BASELINE",0,"DAY 1",1,"Y","N","Medium"
"PROTOCOL001-001-00015","PROTOCOL001","001-01",68,"F","WHITE","NOT HISPANIC OR LATINO",84.2,163,"DRUG 150mg","DRUG 150mg",2023-04-29,31.7,1.9,150,0.72,99.4,107,0.84,17,23,"Y","Y","Y",34.5465394708449,3.54230738516389,0.561738632327243,"High","Q4","Above Median","OS","Overall Survival",281,"DAYS",1,0,2024-02-04,282,"BASELINE",0,"DAY 1",1,"N","Y","High"
"PROTOCOL001-001-00015","PROTOCOL001","001-01",68,"F","WHITE","NOT HISPANIC OR LATINO",84.2,163,"DRUG 150mg","DRUG 150mg",2023-04-29,31.7,1.9,150,0.72,99.4,107,0.84,17,23,"Y","Y","Y",34.5465394708449,3.54230738516389,0.561738632327243,"High","Q4","Above Median","PFS","Progression-Free Survival",58,"DAYS",1,0,2023-06-26,59,"BASELINE",0,"DAY 1",1,"Y","N","High"
"PROTOCOL001-001-00016","PROTOCOL001","001-04",38,"F","ASIAN","NOT HISPANIC OR LATINO",69.5,179,"DRUG 100mg","DRUG 150mg",2023-03-25,21.7,1.87,100,0.72,116.2,88,0.76,11,23,"Y","Y","N",18.5409677986614,2.91998275935035,-0.506637180914254,"Medium","Q2","Below Median","OS","Overall Survival",238,"DAYS",1,0,2023-11-18,239,"BASELINE",0,"DAY 1",1,"N","Y","Medium"
"PROTOCOL001-001-00016","PROTOCOL001","001-04",38,"F","ASIAN","NOT HISPANIC OR LATINO",69.5,179,"DRUG 100mg","DRUG 150mg",2023-03-25,21.7,1.87,100,0.72,116.2,88,0.76,11,23,"Y","Y","N",18.5409677986614,2.91998275935035,-0.506637180914254,"Medium","Q2","Below Median","PFS","Progression-Free Survival",170,"DAYS",1,0,2023-09-11,171,"BASELINE",0,"DAY 1",1,"Y","N","Medium"
"PROTOCOL001-001-00017","PROTOCOL001","001-08",64,"F","WHITE","NOT HISPANIC OR LATINO",47.9,156,"DRUG 50mg","DRUG 50mg",2023-05-13,19.7,1.45,50,1.17,36.7,98,0.87,26,32,"Y","Y","Y",19.6533626972531,2.97824845330547,-0.432384550094817,"Medium","Q2","Below Median","OS","Overall Survival",244,"DAYS",1,0,2024-01-12,245,"BASELINE",0,"DAY 1",1,"N","Y","Medium"
"PROTOCOL001-001-00017","PROTOCOL001","001-08",64,"F","WHITE","NOT HISPANIC OR LATINO",47.9,156,"DRUG 50mg","DRUG 50mg",2023-05-13,19.7,1.45,50,1.17,36.7,98,0.87,26,32,"Y","Y","Y",19.6533626972531,2.97824845330547,-0.432384550094817,"Medium","Q2","Below Median","PFS","Progression-Free Survival",183,"DAYS",1,0,2023-11-12,184,"BASELINE",0,"DAY 1",1,"Y","N","Medium"
"PROTOCOL001-001-00018","PROTOCOL001","001-10",85,"F","WHITE","NOT HISPANIC OR LATINO",95.3,173,"DRUG 100mg","DRUG 50mg",2023-06-07,31.8,2.09,100,1.36,45.5,46,0.8,24,10,"Y","Y","Y",28.9058468509846,3.36404388783869,0.18522102405825,"Medium","Q3","Above Median","OS","Overall Survival",264,"DAYS",1,0,2024-02-26,265,"BASELINE",0,"DAY 1",1,"N","Y","Medium"
"PROTOCOL001-001-00018","PROTOCOL001","001-10",85,"F","WHITE","NOT HISPANIC OR LATINO",95.3,173,"DRUG 100mg","DRUG 50mg",2023-06-07,31.8,2.09,100,1.36,45.5,46,0.8,24,10,"Y","Y","Y",28.9058468509846,3.36404388783869,0.18522102405825,"Medium","Q3","Above Median","PFS","Progression-Free Survival",116,"DAYS",1,0,2023-10-01,117,"BASELINE",0,"DAY 1",1,"Y","N","Medium"
"PROTOCOL001-001-00019","PROTOCOL001","001-03",63,"F","WHITE","NOT HISPANIC OR LATINO",81.7,172,"DRUG 50mg","DRUG 100mg",2023-03-19,27.6,1.95,50,1.19,62.4,49,0.9,33,16,"Y","Y","Y",12.8825657136459,2.55587490220827,-0.8843369003021,"Low","Q1","Below Median","OS","Overall Survival",314,"DAYS",1,0,2024-01-27,315,"BASELINE",0,"DAY 1",1,"N","Y","Low"
"PROTOCOL001-001-00019","PROTOCOL001","001-03",63,"F","WHITE","NOT HISPANIC OR LATINO",81.7,172,"DRUG 50mg","DRUG 100mg",2023-03-19,27.6,1.95,50,1.19,62.4,49,0.9,33,16,"Y","Y","Y",12.8825657136459,2.55587490220827,-0.8843369003021,"Low","Q1","Below Median","PFS","Progression-Free Survival",108,"DAYS",1,0,2023-07-05,109,"BASELINE",0,"DAY 1",1,"Y","N","Low"
"PROTOCOL001-001-00020","PROTOCOL001","001-09",61,"M","WHITE","NOT HISPANIC OR LATINO",77.5,168,"DRUG 100mg","DRUG 150mg",2023-03-18,27.5,1.87,100,1.02,83.4,91,1.17,29,23,"Y","Y","Y",27.8739678668329,3.32769320189594,0.116342850167353,"Medium","Q3","Above Median","OS","Overall Survival",210,"DAYS",1,0,2023-10-14,211,"BASELINE",0,"DAY 1",1,"N","Y","Medium"
"PROTOCOL001-001-00020","PROTOCOL001","001-09",61,"M","WHITE","NOT HISPANIC OR LATINO",77.5,168,"DRUG 100mg","DRUG 150mg",2023-03-18,27.5,1.87,100,1.02,83.4,91,1.17,29,23,"Y","Y","Y",27.8739678668329,3.32769320189594,0.116342850167353,"Medium","Q3","Above Median","PFS","Progression-Free Survival",92,"DAYS",1,0,2023-06-18,93,"BASELINE",0,"DAY 1",1,"Y","N","Medium"
"PROTOCOL001-001-00021","PROTOCOL001","001-04",36,"M","WHITE","HISPANIC OR LATINO",75.4,175,"DRUG 100mg","DRUG 100mg",2023-07-01,24.6,1.91,100,1.2,90.8,117,1.14,21,28,"Y","Y","Y",19.9379206701834,2.99262347976741,-0.413390235991558,"Medium","Q2","Below Median","OS","Overall Survival",535,"DAYS",1,0,2024-12-17,536,"BASELINE",0,"DAY 1",1,"N","Y","Medium"
"PROTOCOL001-001-00021","PROTOCOL001","001-04",36,"M","WHITE","HISPANIC OR LATINO",75.4,175,"DRUG 100mg","DRUG 100mg",2023-07-01,24.6,1.91,100,1.2,90.8,117,1.14,21,28,"Y","Y","Y",19.9379206701834,2.99262347976741,-0.413390235991558,"Medium","Q2","Below Median","PFS","Progression-Free Survival",462,"DAYS",1,0,2024-10-05,463,"BASELINE",0,"DAY 1",1,"Y","N","Medium"
"PROTOCOL001-001-00022","PROTOCOL001","001-10",47,"F","WHITE","NOT HISPANIC OR LATINO",64.9,179,"DRUG 150mg","DRUG 50mg",2023-01-23,20.3,1.82,150,0.86,82.9,101,0.47,26,33,"Y","Y","Y",44.6454331463778,3.79875202093528,1.2358422485191,"High","Q4","Above Median","OS","Overall Survival",324,"DAYS",1,0,2023-12-13,325,"BASELINE",0,"DAY 1",1,"N","Y","High"
"PROTOCOL001-001-00022","PROTOCOL001","001-10",47,"F","WHITE","NOT HISPANIC OR LATINO",64.9,179,"DRUG 150mg","DRUG 50mg",2023-01-23,20.3,1.82,150,0.86,82.9,101,0.47,26,33,"Y","Y","Y",44.6454331463778,3.79875202093528,1.2358422485191,"High","Q4","Above Median","PFS","Progression-Free Survival",54,"DAYS",1,0,2023-03-18,55,"BASELINE",0,"DAY 1",1,"Y","N","High"
"PROTOCOL001-001-00023","PROTOCOL001","001-07",57,"M","ASIAN","NOT HISPANIC OR LATINO",92,171,"DRUG 100mg","DRUG 50mg",2023-04-30,31.5,2.04,100,0.89,119.2,95,0.72,10,32,"Y","Y","Y",20.2541745932176,3.00836092505747,-0.392280209487494,"Medium","Q2","Below Median","OS","Overall Survival",301,"DAYS",1,0,2024-02-25,302,"BASELINE",0,"DAY 1",1,"N","Y","Medium"
"PROTOCOL001-001-00023","PROTOCOL001","001-07",57,"M","ASIAN","NOT HISPANIC OR LATINO",92,171,"DRUG 100mg","DRUG 50mg",2023-04-30,31.5,2.04,100,0.89,119.2,95,0.72,10,32,"Y","Y","Y",20.2541745932176,3.00836092505747,-0.392280209487494,"Medium","Q2","Below Median","PFS","Progression-Free Survival",31,"DAYS",1,0,2023-05-31,32,"BASELINE",0,"DAY 1",1,"Y","N","Medium"
"PROTOCOL001-001-00024","PROTOCOL001","001-02",53,"M","WHITE","NOT HISPANIC OR LATINO",107.5,179,"DRUG 50mg","DRUG 150mg",2023-03-03,33.6,2.25,50,1.1,118.1,64,0.92,23,25,"Y","Y","Y",9.32688783049777,2.23290139335074,-1.12167926631301,"Low","Q1","Below Median","OS","Overall Survival",506,"DAYS",1,0,2024-07-21,507,"BASELINE",0,"DAY 1",1,"N","Y","Low"
"PROTOCOL001-001-00024","PROTOCOL001","001-02",53,"M","WHITE","NOT HISPANIC OR LATINO",107.5,179,"DRUG 50mg","DRUG 150mg",2023-03-03,33.6,2.25,50,1.1,118.1,64,0.92,23,25,"Y","Y","Y",9.32688783049777,2.23290139335074,-1.12167926631301,"Low","Q1","Below Median","PFS","Progression-Free Survival",65,"DAYS",1,0,2023-05-07,66,"BASELINE",0,"DAY 1",1,"Y","N","Low"
"PROTOCOL001-001-00025","PROTOCOL001","001-04",72,"F","WHITE","NOT HISPANIC OR LATINO",58.7,175,"DRUG 100mg","DRUG 100mg",2023-02-10,19.2,1.71,100,0.67,70.3,88,0.81,35,28,"Y","Y","Y",22.3364532483099,3.10622001865156,-0.25328760134492,"Medium","Q2","Below Median","OS","Overall Survival",280,"DAYS",1,0,2023-11-17,281,"BASELINE",0,"DAY 1",1,"N","Y","Medium"
"PROTOCOL001-001-00025","PROTOCOL001","001-04",72,"F","WHITE","NOT HISPANIC OR LATINO",58.7,175,"DRUG 100mg","DRUG 100mg",2023-02-10,19.2,1.71,100,0.67,70.3,88,0.81,35,28,"Y","Y","Y",22.3364532483099,3.10622001865156,-0.25328760134492,"Medium","Q2","Below Median","PFS","Progression-Free Survival",249,"DAYS",1,0,2023-10-17,250,"BASELINE",0,"DAY 1",1,"Y","N","Medium"
"PROTOCOL001-001-00026","PROTOCOL001","001-09",68,"F","BLACK OR AFRICAN AMERICAN","NOT HISPANIC OR LATINO",58.5,164,"DRUG 150mg","DRUG 150mg",2023-07-10,21.8,1.63,150,1.25,39.8,104,0.54,40,10,"Y","Y","Y",75.0917606154328,4.31871084057328,3.26814203363082,"High","Q4","Above Median","OS","Overall Survival",252,"DAYS",1,0,2024-03-18,253,"BASELINE",0,"DAY 1",1,"N","Y","High"
"PROTOCOL001-001-00026","PROTOCOL001","001-09",68,"F","BLACK OR AFRICAN AMERICAN","NOT HISPANIC OR LATINO",58.5,164,"DRUG 150mg","DRUG 150mg",2023-07-10,21.8,1.63,150,1.25,39.8,104,0.54,40,10,"Y","Y","Y",75.0917606154328,4.31871084057328,3.26814203363082,"High","Q4","Above Median","PFS","Progression-Free Survival",33,"DAYS",1,0,2023-08-12,34,"BASELINE",0,"DAY 1",1,"Y","N","High"
"PROTOCOL001-001-00027","PROTOCOL001","001-09",59,"F","WHITE","NOT HISPANIC OR LATINO",94.5,178,"DRUG 50mg","DRUG 100mg",2023-01-21,29.8,2.13,50,0.76,118.9,94,1.08,36,17,"Y","Y","Y",19.2433996810614,2.95716812822806,-0.459749681424929,"Medium","Q2","Below Median","OS","Overall Survival",450,"DAYS",1,0,2024-04-15,451,"BASELINE",0,"DAY 1",1,"N","Y","Medium"
"PROTOCOL001-001-00027","PROTOCOL001","001-09",59,"F","WHITE","NOT HISPANIC OR LATINO",94.5,178,"DRUG 50mg","DRUG 100mg",2023-01-21,29.8,2.13,50,0.76,118.9,94,1.08,36,17,"Y","Y","Y",19.2433996810614,2.95716812822806,-0.459749681424929,"Medium","Q2","Below Median","PFS","Progression-Free Survival",87,"DAYS",1,0,2023-04-18,88,"BASELINE",0,"DAY 1",1,"Y","N","Medium"
"PROTOCOL001-001-00028","PROTOCOL001","001-04",75,"M","ASIAN","NOT HISPANIC OR LATINO",40,177,"DRUG 50mg","DRUG 50mg",2023-02-25,12.8,1.47,50,0.58,62.3,103,0.54,29,29,"Y","Y","Y",15.7576962605081,2.75732889738123,-0.692421234989264,"Low","Q2","Below Median","OS","Overall Survival",475,"DAYS",1,0,2024-06-14,476,"BASELINE",0,"DAY 1",1,"N","Y","Low"
"PROTOCOL001-001-00028","PROTOCOL001","001-04",75,"M","ASIAN","NOT HISPANIC OR LATINO",40,177,"DRUG 50mg","DRUG 50mg",2023-02-25,12.8,1.47,50,0.58,62.3,103,0.54,29,29,"Y","Y","Y",15.7576962605081,2.75732889738123,-0.692421234989264,"Low","Q2","Below Median","PFS","Progression-Free Survival",407,"DAYS",1,0,2024-04-07,408,"BASELINE",0,"DAY 1",1,"Y","N","Low"
"PROTOCOL001-001-00029","PROTOCOL001","001-08",62,"F","BLACK OR AFRICAN AMERICAN","NOT HISPANIC OR LATINO",80.1,164,"DRUG 150mg","DRUG 150mg",2023-03-15,29.8,1.87,150,0.66,111.8,82,0.82,25,26,"Y","Y","Y",30.6185645840129,3.42160651075099,0.299545350508724,"High","Q3","Above Median","OS","Overall Survival",284,"DAYS",1,0,2023-12-24,285,"BASELINE",0,"DAY 1",1,"N","Y","High"
"PROTOCOL001-001-00029","PROTOCOL001","001-08",62,"F","BLACK OR AFRICAN AMERICAN","NOT HISPANIC OR LATINO",80.1,164,"DRUG 150mg","DRUG 150mg",2023-03-15,29.8,1.87,150,0.66,111.8,82,0.82,25,26,"Y","Y","Y",30.6185645840129,3.42160651075099,0.299545350508724,"High","Q3","Above Median","PFS","Progression-Free Survival",145,"DAYS",1,0,2023-08-07,146,"BASELINE",0,"DAY 1",1,"Y","N","High"
"PROTOCOL001-001-00030","PROTOCOL001","001-06",56,"M","WHITE","NOT HISPANIC OR LATINO",71.6,176,"DRUG 50mg","DRUG 50mg",2023-06-07,23.1,1.87,50,0.56,149.2,100,1.16,28,28,"Y","Y","Y",6.94534212435679,1.9380712369594,-1.28064802311113,"Low","Q1","Below Median","OS","Overall Survival",405,"DAYS",0,1,2024-07-16,406,"BASELINE",0,"DAY 1",1,"N","Y","Low"
"PROTOCOL001-001-00030","PROTOCOL001","001-06",56,"M","WHITE","NOT HISPANIC OR LATINO",71.6,176,"DRUG 50mg","DRUG 50mg",2023-06-07,23.1,1.87,50,0.56,149.2,100,1.16,28,28,"Y","Y","Y",6.94534212435679,1.9380712369594,-1.28064802311113,"Low","Q1","Below Median","PFS","Progression-Free Survival",56,"DAYS",1,0,2023-08-02,57,"BASELINE",0,"DAY 1",1,"Y","N","Low"
"PROTOCOL001-001-00031","PROTOCOL001","001-09",52,"F","BLACK OR AFRICAN AMERICAN","NOT HISPANIC OR LATINO",72,151,"DRUG 50mg","DRUG 100mg",2023-05-25,31.6,1.68,50,0.5,150,43,0.68,31,17,"Y","Y","Y",5.55275908459311,1.71429493658811,-1.37360328069805,"Low","Q1","Below Median","OS","Overall Survival",206,"DAYS",1,0,2023-12-17,207,"BASELINE",0,"DAY 1",1,"N","Y","Low"
"PROTOCOL001-001-00031","PROTOCOL001","001-09",52,"F","BLACK OR AFRICAN AMERICAN","NOT HISPANIC OR LATINO",72,151,"DRUG 50mg","DRUG 100mg",2023-05-25,31.6,1.68,50,0.5,150,43,0.68,31,17,"Y","Y","Y",5.55275908459311,1.71429493658811,-1.37360328069805,"Low","Q1","Below Median","PFS","Progression-Free Survival",165,"DAYS",1,0,2023-11-06,166,"BASELINE",0,"DAY 1",1,"Y","N","Low"
"PROTOCOL001-001-00032","PROTOCOL001","001-05",65,"F","WHITE","NOT HISPANIC OR LATINO",99.5,171,"DRUG 100mg","DRUG 100mg",2023-03-28,34,2.11,100,1.35,65.3,99,0.71,27,17,"Y","Y","Y",27.4614129177981,3.31278185268685,0.0888047066877333,"Medium","Q3","Above Median","OS","Overall Survival",192,"DAYS",1,0,2023-10-06,193,"BASELINE",0,"DAY 1",1,"N","Y","Medium"
"PROTOCOL001-001-00032","PROTOCOL001","001-05",65,"F","WHITE","NOT HISPANIC OR LATINO",99.5,171,"DRUG 100mg","DRUG 100mg",2023-03-28,34,2.11,100,1.35,65.3,99,0.71,27,17,"Y","Y","Y",27.4614129177981,3.31278185268685,0.0888047066877333,"Medium","Q3","Above Median","PFS","Progression-Free Survival",27,"DAYS",1,0,2023-04-24,28,"BASELINE",0,"DAY 1",1,"Y","N","Medium"
"PROTOCOL001-001-00033","PROTOCOL001","001-03",52,"M","WHITE","NOT HISPANIC OR LATINO",47,172,"DRUG 100mg","DRUG 100mg",2023-05-01,15.9,1.54,100,1.1,52.2,55,0.74,29,21,"Y","Y","Y",43.8039325099451,3.7797235966842,1.17967187577606,"High","Q4","Above Median","OS","Overall Survival",432,"DAYS",1,0,2024-07-06,433,"BASELINE",0,"DAY 1",1,"N","Y","High"
"PROTOCOL001-001-00033","PROTOCOL001","001-03",52,"M","WHITE","NOT HISPANIC OR LATINO",47,172,"DRUG 100mg","DRUG 100mg",2023-05-01,15.9,1.54,100,1.1,52.2,55,0.74,29,21,"Y","Y","Y",43.8039325099451,3.7797235966842,1.17967187577606,"High","Q4","Above Median","PFS","Progression-Free Survival",269,"DAYS",1,0,2024-01-25,270,"BASELINE",0,"DAY 1",1,"Y","N","High"
"PROTOCOL001-001-00034","PROTOCOL001","001-01",67,"F","WHITE","NOT HISPANIC OR LATINO",71.2,171,"DRUG 100mg","DRUG 100mg",2023-03-29,24.3,1.83,100,0.98,62.6,106,0.91,29,36,"Y","Y","Y",33.2711242830938,3.50468988215837,0.476604357442064,"High","Q3","Above Median","OS","Overall Survival",192,"DAYS",1,0,2023-10-07,193,"BASELINE",0,"DAY 1",1,"N","Y","High"
"PROTOCOL001-001-00034","PROTOCOL001","001-01",67,"F","WHITE","NOT HISPANIC OR LATINO",71.2,171,"DRUG 100mg","DRUG 100mg",2023-03-29,24.3,1.83,100,0.98,62.6,106,0.91,29,36,"Y","Y","Y",33.2711242830938,3.50468988215837,0.476604357442064,"High","Q3","Above Median","PFS","Progression-Free Survival",63,"DAYS",1,0,2023-05-31,64,"BASELINE",0,"DAY 1",1,"Y","N","High"
"PROTOCOL001-001-00035","PROTOCOL001","001-01",62,"F","WHITE","HISPANIC OR LATINO",54.4,150,"DRUG 50mg","DRUG 50mg",2023-04-24,24.2,1.48,50,1.07,46.8,82,0.21,43,22,"Y","Y","Y",17.9440980143551,2.88726125943856,-0.546478384606822,"Medium","Q2","Below Median","OS","Overall Survival",277,"DAYS",1,0,2024-01-26,278,"BASELINE",0,"DAY 1",1,"N","Y","Medium"
"PROTOCOL001-001-00035","PROTOCOL001","001-01",62,"F","WHITE","HISPANIC OR LATINO",54.4,150,"DRUG 50mg","DRUG 50mg",2023-04-24,24.2,1.48,50,1.07,46.8,82,0.21,43,22,"Y","Y","Y",17.9440980143551,2.88726125943856,-0.546478384606822,"Medium","Q2","Below Median","PFS","Progression-Free Survival",183,"DAYS",1,0,2023-10-24,184,"BASELINE",0,"DAY 1",1,"Y","N","Medium"
"PROTOCOL001-001-00036","PROTOCOL001","001-05",74,"M","WHITE","NOT HISPANIC OR LATINO",96.8,166,"DRUG 100mg","DRUG 50mg",2023-02-01,35.1,2.04,100,1.85,48,92,0.88,17,23,"Y","Y","Y",36.2484234778936,3.59039589008995,0.675339804925993,"High","Q4","Above Median","OS","Overall Survival",327,"DAYS",1,0,2023-12-25,328,"BASELINE",0,"DAY 1",1,"N","Y","High"
"PROTOCOL001-001-00036","PROTOCOL001","001-05",74,"M","WHITE","NOT HISPANIC OR LATINO",96.8,166,"DRUG 100mg","DRUG 50mg",2023-02-01,35.1,2.04,100,1.85,48,92,0.88,17,23,"Y","Y","Y",36.2484234778936,3.59039589008995,0.675339804925993,"High","Q4","Above Median","PFS","Progression-Free Survival",133,"DAYS",1,0,2023-06-14,134,"BASELINE",0,"DAY 1",1,"Y","N","High"
"PROTOCOL001-001-00037","PROTOCOL001","001-10",68,"M","WHITE","NOT HISPANIC OR LATINO",42.9,160,"DRUG 50mg","DRUG 50mg",2023-01-27,16.8,1.41,50,1.44,30,83,0.71,30,25,"Y","Y","Y",24.6087493941865,3.20310204613435,-0.101611279342909,"Medium","Q3","Above Median","OS","Overall Survival",482,"DAYS",1,0,2024-05-23,483,"BASELINE",0,"DAY 1",1,"N","Y","Medium"
"PROTOCOL001-001-00037","PROTOCOL001","001-10",68,"M","WHITE","NOT HISPANIC OR LATINO",42.9,160,"DRUG 50mg","DRUG 50mg",2023-01-27,16.8,1.41,50,1.44,30,83,0.71,30,25,"Y","Y","Y",24.6087493941865,3.20310204613435,-0.101611279342909,"Medium","Q3","Above Median","PFS","Progression-Free Survival",217,"DAYS",1,0,2023-09-01,218,"BASELINE",0,"DAY 1",1,"Y","N","Medium"
"PROTOCOL001-001-00038","PROTOCOL001","001-10",68,"M","WHITE","NOT HISPANIC OR LATINO",66.3,159,"DRUG 50mg","DRUG 50mg",2023-03-18,26.2,1.68,50,0.62,106.9,74,1.01,15,28,"Y","Y","Y",8.7505316809743,2.16911446206341,-1.16015117988008,"Low","Q1","Below Median","OS","Overall Survival",518,"DAYS",1,0,2024-08-17,519,"BASELINE",0,"DAY 1",1,"N","Y","Low"
"PROTOCOL001-001-00038","PROTOCOL001","001-10",68,"M","WHITE","NOT HISPANIC OR LATINO",66.3,159,"DRUG 50mg","DRUG 50mg",2023-03-18,26.2,1.68,50,0.62,106.9,74,1.01,15,28,"Y","Y","Y",8.7505316809743,2.16911446206341,-1.16015117988008,"Low","Q1","Below Median","PFS","Progression-Free Survival",66,"DAYS",1,0,2023-05-23,67,"BASELINE",0,"DAY 1",1,"Y","N","Low"
"PROTOCOL001-001-00039","PROTOCOL001","001-03",53,"F","WHITE","NOT HISPANIC OR LATINO",78.5,170,"DRUG 50mg","DRUG 150mg",2023-02-13,27.2,1.9,50,1.33,60.6,89,0.91,21,14,"Y","Y","Y",16.6717702952988,2.81371688760289,-0.631406570203525,"Low","Q2","Below Median","OS","Overall Survival",510,"DAYS",1,0,2024-07-07,511,"BASELINE",0,"DAY 1",1,"N","Y","Low"
"PROTOCOL001-001-00039","PROTOCOL001","001-03",53,"F","WHITE","NOT HISPANIC OR LATINO",78.5,170,"DRUG 50mg","DRUG 150mg",2023-02-13,27.2,1.9,50,1.33,60.6,89,0.91,21,14,"Y","Y","Y",16.6717702952988,2.81371688760289,-0.631406570203525,"Low","Q2","Below Median","PFS","Progression-Free Survival",151,"DAYS",1,0,2023-07-14,152,"BASELINE",0,"DAY 1",1,"Y","N","Low"
"PROTOCOL001-001-00040","PROTOCOL001","001-03",53,"F","WHITE","NOT HISPANIC OR LATINO",91.5,174,"DRUG 50mg","DRUG 50mg",2023-01-28,30.2,2.06,50,1.22,77,103,0.5,40,27,"Y","Y","Y",16.6715034073441,2.81370087909952,-0.631424385039597,"Low","Q2","Below Median","OS","Overall Survival",579,"DAYS",1,0,2024-08-29,580,"BASELINE",0,"DAY 1",1,"N","Y","Low"
"PROTOCOL001-001-00040","PROTOCOL001","001-03",53,"F","WHITE","NOT HISPANIC OR LATINO",91.5,174,"DRUG 50mg","DRUG 50mg",2023-01-28,30.2,2.06,50,1.22,77,103,0.5,40,27,"Y","Y","Y",16.6715034073441,2.81370087909952,-0.631424385039597,"Low","Q2","Below Median","PFS","Progression-Free Survival",189,"DAYS",1,0,2023-08-05,190,"BASELINE",0,"DAY 1",1,"Y","N","Low"
"PROTOCOL001-001-00041","PROTOCOL001","001-03",58,"F","WHITE","NOT HISPANIC OR LATINO",83.4,165,"DRUG 150mg","DRUG 150mg",2023-04-23,30.6,1.91,150,1.19,67.8,98,1.33,24,27,"Y","Y","Y",79.0658585414422,4.37028115759516,3.53341403956489,"High","Q4","Above Median","OS","Overall Survival",68,"DAYS",1,0,2023-06-30,69,"BASELINE",0,"DAY 1",1,"N","Y","High"
"PROTOCOL001-001-00041","PROTOCOL001","001-03",58,"F","WHITE","NOT HISPANIC OR LATINO",83.4,165,"DRUG 150mg","DRUG 150mg",2023-04-23,30.6,1.91,150,1.19,67.8,98,1.33,24,27,"Y","Y","Y",79.0658585414422,4.37028115759516,3.53341403956489,"High","Q4","Above Median","PFS","Progression-Free Survival",66,"DAYS",1,0,2023-06-28,67,"BASELINE",0,"DAY 1",1,"Y","N","High"
"PROTOCOL001-001-00042","PROTOCOL001","001-01",41,"M","WHITE","NOT HISPANIC OR LATINO",109.6,162,"DRUG 150mg","DRUG 100mg",2023-05-11,41.8,2.11,150,0.62,150,52,0.9,34,18,"Y","Y","Y",21.0466160808305,3.04673979095064,-0.339384546894812,"Medium","Q2","Below Median","OS","Overall Survival",407,"DAYS",1,0,2024-06-21,408,"BASELINE",0,"DAY 1",1,"N","Y","Medium"
"PROTOCOL001-001-00042","PROTOCOL001","001-01",41,"M","WHITE","NOT HISPANIC OR LATINO",109.6,162,"DRUG 150mg","DRUG 100mg",2023-05-11,41.8,2.11,150,0.62,150,52,0.9,34,18,"Y","Y","Y",21.0466160808305,3.04673979095064,-0.339384546894812,"Medium","Q2","Below Median","PFS","Progression-Free Survival",141,"DAYS",1,0,2023-09-29,142,"BASELINE",0,"DAY 1",1,"Y","N","Medium"
"PROTOCOL001-001-00043","PROTOCOL001","001-10",50,"M","WHITE","NOT HISPANIC OR LATINO",105.3,144,"DRUG 100mg","DRUG 100mg",2023-03-24,50.8,1.91,100,1.26,104.5,94,0.59,19,17,"Y","Y","Y",12.4057611248615,2.51816097155832,-0.916163722906953,"Low","Q1","Below Median","OS","Overall Survival",457,"DAYS",1,0,2024-06-23,458,"BASELINE",0,"DAY 1",1,"N","Y","Low"
"PROTOCOL001-001-00043","PROTOCOL001","001-10",50,"M","WHITE","NOT HISPANIC OR LATINO",105.3,144,"DRUG 100mg","DRUG 100mg",2023-03-24,50.8,1.91,100,1.26,104.5,94,0.59,19,17,"Y","Y","Y",12.4057611248615,2.51816097155832,-0.916163722906953,"Low","Q1","Below Median","PFS","Progression-Free Survival",88,"DAYS",1,0,2023-06-20,89,"BASELINE",0,"DAY 1",1,"Y","N","Low"
"PROTOCOL001-001-00044","PROTOCOL001","001-08",61,"M","WHITE","HISPANIC OR LATINO",74.1,171,"DRUG 150mg","DRUG 100mg",2023-05-09,25.3,1.86,150,0.56,145.2,68,0.44,28,25,"Y","Y","Y",35.8008556547129,3.57797179409067,0.645464543556702,"High","Q4","Above Median","OS","Overall Survival",368,"DAYS",0,1,2024-05-11,369,"BASELINE",0,"DAY 1",1,"N","Y","High"
"PROTOCOL001-001-00044","PROTOCOL001","001-08",61,"M","WHITE","HISPANIC OR LATINO",74.1,171,"DRUG 150mg","DRUG 100mg",2023-05-09,25.3,1.86,150,0.56,145.2,68,0.44,28,25,"Y","Y","Y",35.8008556547129,3.57797179409067,0.645464543556702,"High","Q4","Above Median","PFS","Progression-Free Survival",59,"DAYS",1,0,2023-07-07,60,"BASELINE",0,"DAY 1",1,"Y","N","High"
"PROTOCOL001-001-00045","PROTOCOL001","001-09",71,"M","WHITE","NOT HISPANIC OR LATINO",81.6,178,"DRUG 100mg","DRUG 50mg",2023-07-06,25.8,2,100,1.28,61.1,83,1.14,22,23,"Y","Y","Y",16.1390070223388,2.78123913816969,-0.666968648626694,"Low","Q2","Below Median","OS","Overall Survival",427,"DAYS",1,0,2024-09-05,428,"BASELINE",0,"DAY 1",1,"N","Y","Low"
"PROTOCOL001-001-00045","PROTOCOL001","001-09",71,"M","WHITE","NOT HISPANIC OR LATINO",81.6,178,"DRUG 100mg","DRUG 50mg",2023-07-06,25.8,2,100,1.28,61.1,83,1.14,22,23,"Y","Y","Y",16.1390070223388,2.78123913816969,-0.666968648626694,"Low","Q2","Below Median","PFS","Progression-Free Survival",408,"DAYS",1,0,2024-08-17,409,"BASELINE",0,"DAY 1",1,"Y","N","Low"
"PROTOCOL001-001-00046","PROTOCOL001","001-08",68,"M","WHITE","NOT HISPANIC OR LATINO",55.5,169,"DRUG 100mg","DRUG 150mg",2023-02-05,19.4,1.63,100,0.74,75,87,0.95,17,22,"Y","Y","Y",25.5465145655495,3.24050089112302,-0.0390152254121556,"Medium","Q3","Above Median","OS","Overall Survival",279,"DAYS",1,0,2023-11-11,280,"BASELINE",0,"DAY 1",1,"N","Y","Medium"
"PROTOCOL001-001-00046","PROTOCOL001","001-08",68,"M","WHITE","NOT HISPANIC OR LATINO",55.5,169,"DRUG 100mg","DRUG 150mg",2023-02-05,19.4,1.63,100,0.74,75,87,0.95,17,22,"Y","Y","Y",25.5465145655495,3.24050089112302,-0.0390152254121556,"Medium","Q3","Above Median","PFS","Progression-Free Survival",198,"DAYS",1,0,2023-08-22,199,"BASELINE",0,"DAY 1",1,"Y","N","Medium"
"PROTOCOL001-001-00047","PROTOCOL001","001-04",59,"F","WHITE","NOT HISPANIC OR LATINO",74.5,165,"DRUG 150mg","DRUG 50mg",2023-01-21,27.4,1.82,150,1.19,59.9,75,0.91,25,18,"Y","Y","Y",53.0108332457553,3.97049629352842,1.79423474566405,"High","Q4","Above Median","OS","Overall Survival",179,"DAYS",1,0,2023-07-19,180,"BASELINE",0,"DAY 1",1,"N","Y","High"
"PROTOCOL001-001-00047","PROTOCOL001","001-04",59,"F","WHITE","NOT HISPANIC OR LATINO",74.5,165,"DRUG 150mg","DRUG 50mg",2023-01-21,27.4,1.82,150,1.19,59.9,75,0.91,25,18,"Y","Y","Y",53.0108332457553,3.97049629352842,1.79423474566405,"High","Q4","Above Median","PFS","Progression-Free Survival",12,"DAYS",1,0,2023-02-02,13,"BASELINE",0,"DAY 1",1,"Y","N","High"
"PROTOCOL001-001-00048","PROTOCOL001","001-02",37,"F","WHITE","NOT HISPANIC OR LATINO",88.9,179,"DRUG 100mg","DRUG 150mg",2023-05-24,27.7,2.08,100,2.02,53.5,86,0.56,27,15,"Y","Y","Y",15.3365852392802,2.73024116615765,-0.720530498374788,"Low","Q2","Below Median","OS","Overall Survival",437,"DAYS",1,0,2024-08-03,438,"BASELINE",0,"DAY 1",1,"N","Y","Low"
"PROTOCOL001-001-00048","PROTOCOL001","001-02",37,"F","WHITE","NOT HISPANIC OR LATINO",88.9,179,"DRUG 100mg","DRUG 150mg",2023-05-24,27.7,2.08,100,2.02,53.5,86,0.56,27,15,"Y","Y","Y",15.3365852392802,2.73024116615765,-0.720530498374788,"Low","Q2","Below Median","PFS","Progression-Free Survival",99,"DAYS",1,0,2023-08-31,100,"BASELINE",0,"DAY 1",1,"Y","N","Low"
"PROTOCOL001-001-00049","PROTOCOL001","001-03",66,"M","WHITE","NOT HISPANIC OR LATINO",69.6,151,"DRUG 100mg","DRUG 100mg",2023-05-04,30.5,1.66,100,0.92,77.8,79,0.5,21,15,"Y","Y","Y",23.6436640154431,3.16309517272087,-0.166030963780316,"Medium","Q3","Above Median","OS","Overall Survival",110,"DAYS",1,0,2023-08-22,111,"BASELINE",0,"DAY 1",1,"N","Y","Medium"
"PROTOCOL001-001-00049","PROTOCOL001","001-03",66,"M","WHITE","NOT HISPANIC OR LATINO",69.6,151,"DRUG 100mg","DRUG 100mg",2023-05-04,30.5,1.66,100,0.92,77.8,79,0.5,21,15,"Y","Y","Y",23.6436640154431,3.16309517272087,-0.166030963780316,"Medium","Q3","Above Median","PFS","Progression-Free Survival",83,"DAYS",1,0,2023-07-26,84,"BASELINE",0,"DAY 1",1,"Y","N","Medium"
"PROTOCOL001-001-00050","PROTOCOL001","001-06",59,"F","WHITE","NOT HISPANIC OR LATINO",82,167,"DRUG 100mg","DRUG 150mg",2023-02-26,29.4,1.91,100,0.61,128.5,84,1.06,30,24,"Y","Y","Y",18.1696300766297,2.8997515231821,-0.531424064437592,"Medium","Q2","Below Median","OS","Overall Survival",188,"DAYS",1,0,2023-09-02,189,"BASELINE",0,"DAY 1",1,"N","Y","Medium"
"PROTOCOL001-001-00050","PROTOCOL001","001-06",59,"F","WHITE","NOT HISPANIC OR LATINO",82,167,"DRUG 100mg","DRUG 150mg",2023-02-26,29.4,1.91,100,0.61,128.5,84,1.06,30,24,"Y","Y","Y",18.1696300766297,2.8997515231821,-0.531424064437592,"Medium","Q2","Below Median","PFS","Progression-Free Survival",87,"DAYS",1,0,2023-05-24,88,"BASELINE",0,"DAY 1",1,"Y","N","Medium"
"PROTOCOL001-001-00051","PROTOCOL001","001-03",57,"F","WHITE","NOT HISPANIC OR LATINO",72,167,"DRUG 100mg","DRUG 100mg",2023-04-13,25.8,1.81,100,1.15,61.3,79,1.07,34,27,"Y","Y","Y",44.568142033419,3.7970192996058,1.23068304787604,"High","Q4","Above Median","OS","Overall Survival",83,"DAYS",1,0,2023-07-05,84,"BASELINE",0,"DAY 1",1,"N","Y","High"
"PROTOCOL001-001-00051","PROTOCOL001","001-03",57,"F","WHITE","NOT HISPANIC OR LATINO",72,167,"DRUG 100mg","DRUG 100mg",2023-04-13,25.8,1.81,100,1.15,61.3,79,1.07,34,27,"Y","Y","Y",44.568142033419,3.7970192996058,1.23068304787604,"High","Q4","Above Median","PFS","Progression-Free Survival",25,"DAYS",1,0,2023-05-08,26,"BASELINE",0,"DAY 1",1,"Y","N","High"
"PROTOCOL001-001-00052","PROTOCOL001","001-07",70,"M","BLACK OR AFRICAN AMERICAN","HISPANIC OR LATINO",74.9,170,"DRUG 150mg","DRUG 150mg",2023-02-09,25.9,1.86,150,0.84,86.7,87,1.43,32,21,"Y","Y","Y",43.3699343135879,3.7697664432874,1.15070239030718,"High","Q4","Above Median","OS","Overall Survival",348,"DAYS",1,0,2024-01-23,349,"BASELINE",0,"DAY 1",1,"N","Y","High"
"PROTOCOL001-001-00052","PROTOCOL001","001-07",70,"M","BLACK OR AFRICAN AMERICAN","HISPANIC OR LATINO",74.9,170,"DRUG 150mg","DRUG 150mg",2023-02-09,25.9,1.86,150,0.84,86.7,87,1.43,32,21,"Y","Y","Y",43.3699343135879,3.7697664432874,1.15070239030718,"High","Q4","Above Median","PFS","Progression-Free Survival",214,"DAYS",1,0,2023-09-11,215,"BASELINE",0,"DAY 1",1,"Y","N","High"
"PROTOCOL001-001-00053","PROTOCOL001","001-10",48,"M","WHITE","NOT HISPANIC OR LATINO",67,182,"DRUG 150mg","DRUG 50mg",2023-02-27,20.2,1.87,150,0.81,105.7,97,0.64,46,28,"Y","Y","Y",25.7048100324536,3.24667813518464,-0.0284489643844366,"Medium","Q3","Above Median","OS","Overall Survival",321,"DAYS",1,0,2024-01-14,322,"BASELINE",0,"DAY 1",1,"N","Y","Medium"
"PROTOCOL001-001-00053","PROTOCOL001","001-10",48,"M","WHITE","NOT HISPANIC OR LATINO",67,182,"DRUG 150mg","DRUG 50mg",2023-02-27,20.2,1.87,150,0.81,105.7,97,0.64,46,28,"Y","Y","Y",25.7048100324536,3.24667813518464,-0.0284489643844366,"Medium","Q3","Above Median","PFS","Progression-Free Survival",27,"DAYS",1,0,2023-03-26,28,"BASELINE",0,"DAY 1",1,"Y","N","Medium"
"PROTOCOL001-001-00054","PROTOCOL001","001-07",55,"F","ASIAN","HISPANIC OR LATINO",67.3,164,"DRUG 50mg","DRUG 50mg",2023-02-15,25,1.73,50,0.9,75,65,0.37,19,24,"Y","Y","Y",15.4425381267201,2.73712591753226,-0.713458117293857,"Low","Q2","Below Median","OS","Overall Survival",136,"DAYS",1,0,2023-07-01,137,"BASELINE",0,"DAY 1",1,"N","Y","Low"
"PROTOCOL001-001-00054","PROTOCOL001","001-07",55,"F","ASIAN","HISPANIC OR LATINO",67.3,164,"DRUG 50mg","DRUG 50mg",2023-02-15,25,1.73,50,0.9,75,65,0.37,19,24,"Y","Y","Y",15.4425381267201,2.73712591753226,-0.713458117293857,"Low","Q2","Below Median","PFS","Progression-Free Survival",26,"DAYS",1,0,2023-03-13,27,"BASELINE",0,"DAY 1",1,"Y","N","Low"
"PROTOCOL001-001-00055","PROTOCOL001","001-10",83,"F","BLACK OR AFRICAN AMERICAN","NOT HISPANIC OR LATINO",73.7,176,"DRUG 150mg","DRUG 100mg",2023-03-01,23.8,1.9,150,1.15,43.1,66,0.96,13,45,"Y","Y","Y",66.6387709446082,4.19928655448035,2.70390291122669,"High","Q4","Above Median","OS","Overall Survival",103,"DAYS",1,0,2023-06-12,104,"BASELINE",0,"DAY 1",1,"N","Y","High"
"PROTOCOL001-001-00055","PROTOCOL001","001-10",83,"F","BLACK OR AFRICAN AMERICAN","NOT HISPANIC OR LATINO",73.7,176,"DRUG 150mg","DRUG 100mg",2023-03-01,23.8,1.9,150,1.15,43.1,66,0.96,13,45,"Y","Y","Y",66.6387709446082,4.19928655448035,2.70390291122669,"High","Q4","Above Median","PFS","Progression-Free Survival",76,"DAYS",1,0,2023-05-16,77,"BASELINE",0,"DAY 1",1,"Y","N","High"
"PROTOCOL001-001-00056","PROTOCOL001","001-07",51,"M","ASIAN","NOT HISPANIC OR LATINO",81.5,177,"DRUG 100mg","DRUG 50mg",2023-03-10,26,1.99,100,0.94,107.2,91,0.77,23,16,"Y","Y","Y",23.1797013013965,3.14327695178011,-0.197000588113999,"Medium","Q2","Below Median","OS","Overall Survival",645,"DAYS",0,1,2024-12-14,646,"BASELINE",0,"DAY 1",1,"N","Y","Medium"
"PROTOCOL001-001-00056","PROTOCOL001","001-07",51,"M","ASIAN","NOT HISPANIC OR LATINO",81.5,177,"DRUG 100mg","DRUG 50mg",2023-03-10,26,1.99,100,0.94,107.2,91,0.77,23,16,"Y","Y","Y",23.1797013013965,3.14327695178011,-0.197000588113999,"Medium","Q2","Below Median","PFS","Progression-Free Survival",173,"DAYS",1,0,2023-08-30,174,"BASELINE",0,"DAY 1",1,"Y","N","Medium"
"PROTOCOL001-001-00057","PROTOCOL001","001-07",62,"F","WHITE","NOT HISPANIC OR LATINO",90,170,"DRUG 150mg","DRUG 150mg",2023-01-24,31.1,2.01,150,0.99,83.7,65,0.55,40,33,"Y","Y","Y",30.1743040826698,3.40699070400579,0.269890853678827,"High","Q3","Above Median","OS","Overall Survival",322,"DAYS",1,0,2023-12-12,323,"BASELINE",0,"DAY 1",1,"N","Y","High"
"PROTOCOL001-001-00057","PROTOCOL001","001-07",62,"F","WHITE","NOT HISPANIC OR LATINO",90,170,"DRUG 150mg","DRUG 150mg",2023-01-24,31.1,2.01,150,0.99,83.7,65,0.55,40,33,"Y","Y","Y",30.1743040826698,3.40699070400579,0.269890853678827,"High","Q3","Above Median","PFS","Progression-Free Survival",208,"DAYS",1,0,2023-08-20,209,"BASELINE",0,"DAY 1",1,"Y","N","High"
"PROTOCOL001-001-00058","PROTOCOL001","001-05",66,"M","WHITE","NOT HISPANIC OR LATINO",57.6,168,"DRUG 100mg","DRUG 150mg",2023-04-07,20.4,1.65,100,1.36,43.5,110,0.71,29,15,"Y","Y","Y",51.9552219733811,3.95038223171163,1.72377243574546,"High","Q4","Above Median","OS","Overall Survival",141,"DAYS",1,0,2023-08-26,142,"BASELINE",0,"DAY 1",1,"N","Y","High"
"PROTOCOL001-001-00058","PROTOCOL001","001-05",66,"M","WHITE","NOT HISPANIC OR LATINO",57.6,168,"DRUG 100mg","DRUG 150mg",2023-04-07,20.4,1.65,100,1.36,43.5,110,0.71,29,15,"Y","Y","Y",51.9552219733811,3.95038223171163,1.72377243574546,"High","Q4","Above Median","PFS","Progression-Free Survival",129,"DAYS",1,0,2023-08-14,130,"BASELINE",0,"DAY 1",1,"Y","N","High"
"PROTOCOL001-001-00059","PROTOCOL001","001-07",37,"M","WHITE","NOT HISPANIC OR LATINO",100.2,177,"DRUG 150mg","DRUG 50mg",2023-04-11,32,2.17,150,1.01,141.9,86,0.95,23,15,"Y","Y","Y",19.3526767191378,2.96283074164722,-0.452455412478173,"Medium","Q2","Below Median","OS","Overall Survival",204,"DAYS",1,0,2023-11-01,205,"BASELINE",0,"DAY 1",1,"N","Y","Medium"
"PROTOCOL001-001-00059","PROTOCOL001","001-07",37,"M","WHITE","NOT HISPANIC OR LATINO",100.2,177,"DRUG 150mg","DRUG 50mg",2023-04-11,32,2.17,150,1.01,141.9,86,0.95,23,15,"Y","Y","Y",19.3526767191378,2.96283074164722,-0.452455412478173,"Medium","Q2","Below Median","PFS","Progression-Free Survival",116,"DAYS",1,0,2023-08-05,117,"BASELINE",0,"DAY 1",1,"Y","N","Medium"
"PROTOCOL001-001-00060","PROTOCOL001","001-10",32,"M","WHITE","NOT HISPANIC OR LATINO",93.3,170,"DRUG 150mg","DRUG 100mg",2023-01-17,32.3,2.04,150,0.61,150,74,0.68,31,14,"Y","Y","Y",15.6336839527317,2.74942781421269,-0.700699086782766,"Low","Q2","Below Median","OS","Overall Survival",461,"DAYS",0,1,2024-04-22,462,"BASELINE",0,"DAY 1",1,"N","Y","Low"
"PROTOCOL001-001-00060","PROTOCOL001","001-10",32,"M","WHITE","NOT HISPANIC OR LATINO",93.3,170,"DRUG 150mg","DRUG 100mg",2023-01-17,32.3,2.04,150,0.61,150,74,0.68,31,14,"Y","Y","Y",15.6336839527317,2.74942781421269,-0.700699086782766,"Low","Q2","Below Median","PFS","Progression-Free Survival",102,"DAYS",1,0,2023-04-29,103,"BASELINE",0,"DAY 1",1,"Y","N","Low"
"PROTOCOL001-001-00061","PROTOCOL001","001-08",59,"M","WHITE","NOT HISPANIC OR LATINO",74.6,152,"DRUG 100mg","DRUG 150mg",2023-04-17,32.3,1.71,100,1.04,80.7,69,0.56,26,29,"Y","Y","Y",20.8826626253472,3.03891927525544,-0.350328480040307,"Medium","Q2","Below Median","OS","Overall Survival",518,"DAYS",1,0,2024-09-16,519,"BASELINE",0,"DAY 1",1,"N","Y","Medium"
"PROTOCOL001-001-00061","PROTOCOL001","001-08",59,"M","WHITE","NOT HISPANIC OR LATINO",74.6,152,"DRUG 100mg","DRUG 150mg",2023-04-17,32.3,1.71,100,1.04,80.7,69,0.56,26,29,"Y","Y","Y",20.8826626253472,3.03891927525544,-0.350328480040307,"Medium","Q2","Below Median","PFS","Progression-Free Survival",382,"DAYS",1,0,2024-05-03,383,"BASELINE",0,"DAY 1",1,"Y","N","Medium"
"PROTOCOL001-001-00062","PROTOCOL001","001-03",68,"F","ASIAN","HISPANIC OR LATINO",70.6,152,"DRUG 100mg","DRUG 150mg",2023-02-02,30.6,1.67,100,1.68,35.7,79,0.9,29,24,"Y","Y","Y",56.3409864442137,4.03142227106694,2.01652328396131,"High","Q4","Above Median","OS","Overall Survival",98,"DAYS",1,0,2023-05-11,99,"BASELINE",0,"DAY 1",1,"N","Y","High"
"PROTOCOL001-001-00062","PROTOCOL001","001-03",68,"F","ASIAN","HISPANIC OR LATINO",70.6,152,"DRUG 100mg","DRUG 150mg",2023-02-02,30.6,1.67,100,1.68,35.7,79,0.9,29,24,"Y","Y","Y",56.3409864442137,4.03142227106694,2.01652328396131,"High","Q4","Above Median","PFS","Progression-Free Survival",78,"DAYS",1,0,2023-04-21,79,"BASELINE",0,"DAY 1",1,"Y","N","High"
"PROTOCOL001-001-00063","PROTOCOL001","001-05",31,"F","WHITE","NOT HISPANIC OR LATINO",89.6,167,"DRUG 150mg","DRUG 50mg",2023-06-29,32.1,1.98,150,0.5,150,79,1.1,36,25,"Y","Y","Y",21.6162140792425,3.07344368490874,-0.301363741562893,"Medium","Q2","Below Median","OS","Overall Survival",444,"DAYS",1,0,2024-09-15,445,"BASELINE",0,"DAY 1",1,"N","Y","Medium"
"PROTOCOL001-001-00063","PROTOCOL001","001-05",31,"F","WHITE","NOT HISPANIC OR LATINO",89.6,167,"DRUG 150mg","DRUG 50mg",2023-06-29,32.1,1.98,150,0.5,150,79,1.1,36,25,"Y","Y","Y",21.6162140792425,3.07344368490874,-0.301363741562893,"Medium","Q2","Below Median","PFS","Progression-Free Survival",185,"DAYS",1,0,2023-12-31,186,"BASELINE",0,"DAY 1",1,"Y","N","Medium"
"PROTOCOL001-001-00064","PROTOCOL001","001-04",56,"M","WHITE","NOT HISPANIC OR LATINO",71.4,169,"DRUG 150mg","DRUG 150mg",2023-02-26,25,1.82,150,1.43,58.3,79,0.54,40,21,"Y","Y","Y",33.1348367569626,3.50058519892363,0.467507131829175,"High","Q3","Above Median","OS","Overall Survival",365,"DAYS",1,0,2024-02-26,366,"BASELINE",0,"DAY 1",1,"N","Y","High"
"PROTOCOL001-001-00064","PROTOCOL001","001-04",56,"M","WHITE","NOT HISPANIC OR LATINO",71.4,169,"DRUG 150mg","DRUG 150mg",2023-02-26,25,1.82,150,1.43,58.3,79,0.54,40,21,"Y","Y","Y",33.1348367569626,3.50058519892363,0.467507131829175,"High","Q3","Above Median","PFS","Progression-Free Survival",77,"DAYS",1,0,2023-05-14,78,"BASELINE",0,"DAY 1",1,"Y","N","High"
"PROTOCOL001-001-00065","PROTOCOL001","001-09",55,"F","BLACK OR AFRICAN AMERICAN","NOT HISPANIC OR LATINO",61.5,180,"DRUG 100mg","DRUG 100mg",2023-03-23,19,1.79,100,1.27,48.6,71,0.66,45,32,"Y","Y","Y",26.672080312094,3.28361733710521,0.0361165627207989,"Medium","Q3","Above Median","OS","Overall Survival",605,"DAYS",1,0,2024-11-17,606,"BASELINE",0,"DAY 1",1,"N","Y","Medium"
"PROTOCOL001-001-00065","PROTOCOL001","001-09",55,"F","BLACK OR AFRICAN AMERICAN","NOT HISPANIC OR LATINO",61.5,180,"DRUG 100mg","DRUG 100mg",2023-03-23,19,1.79,100,1.27,48.6,71,0.66,45,32,"Y","Y","Y",26.672080312094,3.28361733710521,0.0361165627207989,"Medium","Q3","Above Median","PFS","Progression-Free Survival",120,"DAYS",1,0,2023-07-21,121,"BASELINE",0,"DAY 1",1,"Y","N","Medium"
"PROTOCOL001-001-00066","PROTOCOL001","001-01",79,"F","ASIAN","HISPANIC OR LATINO",65.5,160,"DRUG 150mg","DRUG 150mg",2023-02-12,25.6,1.68,150,1.39,33.9,95,1.2,31,39,"Y","Y","Y",70.9564431266452,4.26206621169774,2.99210858255618,"High","Q4","Above Median","OS","Overall Survival",276,"DAYS",1,0,2023-11-15,277,"BASELINE",0,"DAY 1",1,"N","Y","High"
"PROTOCOL001-001-00066","PROTOCOL001","001-01",79,"F","ASIAN","HISPANIC OR LATINO",65.5,160,"DRUG 150mg","DRUG 150mg",2023-02-12,25.6,1.68,150,1.39,33.9,95,1.2,31,39,"Y","Y","Y",70.9564431266452,4.26206621169774,2.99210858255618,"High","Q4","Above Median","PFS","Progression-Free Survival",46,"DAYS",1,0,2023-03-30,47,"BASELINE",0,"DAY 1",1,"Y","N","High"
"PROTOCOL001-001-00067","PROTOCOL001","001-03",66,"M","WHITE","NOT HISPANIC OR LATINO",50.6,174,"DRUG 150mg","DRUG 100mg",2023-05-16,16.7,1.6,150,1.03,50.5,70,0.82,35,19,"Y","Y","Y",41.3237151550733,3.72143655199745,1.01411676235691,"High","Q4","Above Median","OS","Overall Survival",144,"DAYS",1,0,2023-10-07,145,"BASELINE",0,"DAY 1",1,"N","Y","High"
"PROTOCOL001-001-00067","PROTOCOL001","001-03",66,"M","WHITE","NOT HISPANIC OR LATINO",50.6,174,"DRUG 150mg","DRUG 100mg",2023-05-16,16.7,1.6,150,1.03,50.5,70,0.82,35,19,"Y","Y","Y",41.3237151550733,3.72143655199745,1.01411676235691,"High","Q4","Above Median","PFS","Progression-Free Survival",143,"DAYS",1,0,2023-10-06,144,"BASELINE",0,"DAY 1",1,"Y","N","High"
"PROTOCOL001-001-00068","PROTOCOL001","001-10",55,"F","WHITE","NOT HISPANIC OR LATINO",42.8,172,"DRUG 100mg","DRUG 100mg",2023-04-21,14.5,1.48,100,0.5,93.4,83,1,32,24,"Y","Y","Y",12.6473669995714,2.53744905118253,-0.900036471836896,"Low","Q1","Below Median","OS","Overall Survival",354,"DAYS",1,0,2024-04-09,355,"BASELINE",0,"DAY 1",1,"N","Y","Low"
"PROTOCOL001-001-00068","PROTOCOL001","001-10",55,"F","WHITE","NOT HISPANIC OR LATINO",42.8,172,"DRUG 100mg","DRUG 100mg",2023-04-21,14.5,1.48,100,0.5,93.4,83,1,32,24,"Y","Y","Y",12.6473669995714,2.53744905118253,-0.900036471836896,"Low","Q1","Below Median","PFS","Progression-Free Survival",45,"DAYS",1,0,2023-06-05,46,"BASELINE",0,"DAY 1",1,"Y","N","Low"
"PROTOCOL001-001-00069","PROTOCOL001","001-07",58,"M","WHITE","NOT HISPANIC OR LATINO",106.7,160,"DRUG 100mg","DRUG 50mg",2023-06-04,41.7,2.07,100,0.68,150,82,0.59,25,11,"Y","Y","Y",21.529737237806,3.06943510683389,-0.307136091822456,"Medium","Q2","Below Median","OS","Overall Survival",147,"DAYS",1,0,2023-10-29,148,"BASELINE",0,"DAY 1",1,"N","Y","Medium"
"PROTOCOL001-001-00069","PROTOCOL001","001-07",58,"M","WHITE","NOT HISPANIC OR LATINO",106.7,160,"DRUG 100mg","DRUG 50mg",2023-06-04,41.7,2.07,100,0.68,150,82,0.59,25,11,"Y","Y","Y",21.529737237806,3.06943510683389,-0.307136091822456,"Medium","Q2","Below Median","PFS","Progression-Free Survival",23,"DAYS",1,0,2023-06-27,24,"BASELINE",0,"DAY 1",1,"Y","N","Medium"
"PROTOCOL001-001-00070","PROTOCOL001","001-10",76,"M","BLACK OR AFRICAN AMERICAN","NOT HISPANIC OR LATINO",79,185,"DRUG 150mg","DRUG 50mg",2023-02-11,23.1,2.03,150,0.54,130,71,0.58,35,10,"Y","Y","Y",33.137781163202,3.50067405632308,0.467703671663865,"High","Q3","Above Median","OS","Overall Survival",214,"DAYS",1,0,2023-09-13,215,"BASELINE",0,"DAY 1",1,"N","Y","High"
"PROTOCOL001-001-00070","PROTOCOL001","001-10",76,"M","BLACK OR AFRICAN AMERICAN","NOT HISPANIC OR LATINO",79,185,"DRUG 150mg","DRUG 50mg",2023-02-11,23.1,2.03,150,0.54,130,71,0.58,35,10,"Y","Y","Y",33.137781163202,3.50067405632308,0.467703671663865,"High","Q3","Above Median","PFS","Progression-Free Survival",151,"DAYS",1,0,2023-07-12,152,"BASELINE",0,"DAY 1",1,"Y","N","High"
"PROTOCOL001-001-00071","PROTOCOL001","001-10",59,"F","WHITE","NOT HISPANIC OR LATINO",67.2,167,"DRUG 100mg","DRUG 100mg",2023-04-21,24.1,1.76,100,1.02,63,98,0.88,41,25,"Y","Y","Y",34.2307929942676,3.53312561891902,0.540662477997956,"High","Q4","Above Median","OS","Overall Survival",118,"DAYS",1,0,2023-08-17,119,"BASELINE",0,"DAY 1",1,"N","Y","High"
"PROTOCOL001-001-00071","PROTOCOL001","001-10",59,"F","WHITE","NOT HISPANIC OR LATINO",67.2,167,"DRUG 100mg","DRUG 100mg",2023-04-21,24.1,1.76,100,1.02,63,98,0.88,41,25,"Y","Y","Y",34.2307929942676,3.53312561891902,0.540662477997956,"High","Q4","Above Median","PFS","Progression-Free Survival",77,"DAYS",1,0,2023-07-07,78,"BASELINE",0,"DAY 1",1,"Y","N","High"
"PROTOCOL001-001-00072","PROTOCOL001","001-07",59,"M","WHITE","NOT HISPANIC OR LATINO",74.8,153,"DRUG 50mg","DRUG 100mg",2023-05-17,32,1.72,50,1.13,74.5,88,0.67,31,21,"Y","Y","Y",13.8311755378884,2.6269251411887,-0.821016963146388,"Low","Q1","Below Median","OS","Overall Survival",245,"DAYS",1,0,2024-01-17,246,"BASELINE",0,"DAY 1",1,"N","Y","Low"
"PROTOCOL001-001-00072","PROTOCOL001","001-07",59,"M","WHITE","NOT HISPANIC OR LATINO",74.8,153,"DRUG 50mg","DRUG 100mg",2023-05-17,32,1.72,50,1.13,74.5,88,0.67,31,21,"Y","Y","Y",13.8311755378884,2.6269251411887,-0.821016963146388,"Low","Q1","Below Median","PFS","Progression-Free Survival",18,"DAYS",1,0,2023-06-04,19,"BASELINE",0,"DAY 1",1,"Y","N","Low"
"PROTOCOL001-001-00073","PROTOCOL001","001-04",49,"F","WHITE","HISPANIC OR LATINO",72.7,155,"DRUG 50mg","DRUG 50mg",2023-04-27,30.3,1.72,50,1.07,73,53,1.3,27,38,"Y","Y","N",12.237294247582,2.50448819444313,-0.927408928058262,"Low","Q1","Below Median","OS","Overall Survival",284,"DAYS",1,0,2024-02-05,285,"BASELINE",0,"DAY 1",1,"N","Y","Low"
"PROTOCOL001-001-00073","PROTOCOL001","001-04",49,"F","WHITE","HISPANIC OR LATINO",72.7,155,"DRUG 50mg","DRUG 50mg",2023-04-27,30.3,1.72,50,1.07,73,53,1.3,27,38,"Y","Y","N",12.237294247582,2.50448819444313,-0.927408928058262,"Low","Q1","Below Median","PFS","Progression-Free Survival",42,"DAYS",1,0,2023-06-08,43,"BASELINE",0,"DAY 1",1,"Y","N","Low"
"PROTOCOL001-001-00074","PROTOCOL001","001-10",60,"M","WHITE","HISPANIC OR LATINO",76.3,168,"DRUG 100mg","DRUG 50mg",2023-01-19,27,1.86,100,1.72,49.3,102,0.2,38,23,"Y","Y","Y",37.8419438812159,3.6334181139323,0.781707680543656,"High","Q4","Above Median","OS","Overall Survival",478,"DAYS",1,0,2024-05-11,479,"BASELINE",0,"DAY 1",1,"N","Y","High"
"PROTOCOL001-001-00074","PROTOCOL001","001-10",60,"M","WHITE","HISPANIC OR LATINO",76.3,168,"DRUG 100mg","DRUG 50mg",2023-01-19,27,1.86,100,1.72,49.3,102,0.2,38,23,"Y","Y","Y",37.8419438812159,3.6334181139323,0.781707680543656,"High","Q4","Above Median","PFS","Progression-Free Survival",287,"DAYS",1,0,2023-11-02,288,"BASELINE",0,"DAY 1",1,"Y","N","High"
"PROTOCOL001-001-00075","PROTOCOL001","001-04",61,"F","WHITE","NOT HISPANIC OR LATINO",86.7,182,"DRUG 150mg","DRUG 50mg",2023-04-07,26.2,2.08,150,0.72,112.3,97,0.93,32,36,"Y","Y","Y",31.9919627039978,3.46548470575232,0.391220010020784,"High","Q3","Above Median","OS","Overall Survival",199,"DAYS",1,0,2023-10-23,200,"BASELINE",0,"DAY 1",1,"N","Y","High"
"PROTOCOL001-001-00075","PROTOCOL001","001-04",61,"F","WHITE","NOT HISPANIC OR LATINO",86.7,182,"DRUG 150mg","DRUG 50mg",2023-04-07,26.2,2.08,150,0.72,112.3,97,0.93,32,36,"Y","Y","Y",31.9919627039978,3.46548470575232,0.391220010020784,"High","Q3","Above Median","PFS","Progression-Free Survival",107,"DAYS",1,0,2023-07-23,108,"BASELINE",0,"DAY 1",1,"Y","N","High"
"PROTOCOL001-001-00076","PROTOCOL001","001-09",69,"M","WHITE","HISPANIC OR LATINO",80.8,176,"DRUG 150mg","DRUG 50mg",2023-02-28,26.1,1.97,150,1.14,69.9,80,1,28,19,"Y","Y","Y",30.8104185859874,3.42785289855937,0.312351651938083,"High","Q3","Above Median","OS","Overall Survival",180,"DAYS",1,0,2023-08-27,181,"BASELINE",0,"DAY 1",1,"N","Y","High"
"PROTOCOL001-001-00076","PROTOCOL001","001-09",69,"M","WHITE","HISPANIC OR LATINO",80.8,176,"DRUG 150mg","DRUG 50mg",2023-02-28,26.1,1.97,150,1.14,69.9,80,1,28,19,"Y","Y","Y",30.8104185859874,3.42785289855937,0.312351651938083,"High","Q3","Above Median","PFS","Progression-Free Survival",42,"DAYS",1,0,2023-04-11,43,"BASELINE",0,"DAY 1",1,"Y","N","High"
"PROTOCOL001-001-00077","PROTOCOL001","001-02",52,"F","WHITE","NOT HISPANIC OR LATINO",80.2,167,"DRUG 50mg","DRUG 50mg",2023-03-13,28.8,1.89,50,0.55,150,80,1,17,28,"Y","Y","Y",8.38163995050859,2.12604359349899,-1.18477479286976,"Low","Q1","Below Median","OS","Overall Survival",410,"DAYS",0,1,2024-04-26,411,"BASELINE",0,"DAY 1",1,"N","Y","Low"
"PROTOCOL001-001-00077","PROTOCOL001","001-02",52,"F","WHITE","NOT HISPANIC OR LATINO",80.2,167,"DRUG 50mg","DRUG 50mg",2023-03-13,28.8,1.89,50,0.55,150,80,1,17,28,"Y","Y","Y",8.38163995050859,2.12604359349899,-1.18477479286976,"Low","Q1","Below Median","PFS","Progression-Free Survival",224,"DAYS",1,0,2023-10-23,225,"BASELINE",0,"DAY 1",1,"Y","N","Low"
"PROTOCOL001-001-00078","PROTOCOL001","001-08",67,"F","ASIAN","NOT HISPANIC OR LATINO",46.5,153,"DRUG 100mg","DRUG 50mg",2023-05-13,19.9,1.41,100,1.26,31.8,78,0.92,28,25,"Y","Y","Y",33.3421357359117,3.50682193453644,0.481344389238972,"High","Q3","Above Median","OS","Overall Survival",361,"DAYS",1,0,2024-05-08,362,"BASELINE",0,"DAY 1",1,"N","Y","High"
"PROTOCOL001-001-00078","PROTOCOL001","001-08",67,"F","ASIAN","NOT HISPANIC OR LATINO",46.5,153,"DRUG 100mg","DRUG 50mg",2023-05-13,19.9,1.41,100,1.26,31.8,78,0.92,28,25,"Y","Y","Y",33.3421357359117,3.50682193453644,0.481344389238972,"High","Q3","Above Median","PFS","Progression-Free Survival",40,"DAYS",1,0,2023-06-22,41,"BASELINE",0,"DAY 1",1,"Y","N","High"
"PROTOCOL001-001-00079","PROTOCOL001","001-10",50,"M","WHITE","HISPANIC OR LATINO",74.1,160,"DRUG 150mg","DRUG 50mg",2023-04-15,28.9,1.77,150,0.94,98.5,94,1.19,17,31,"Y","Y","Y",29.4726786902251,3.38346368811343,0.223057187590737,"High","Q3","Above Median","OS","Overall Survival",259,"DAYS",1,0,2023-12-30,260,"BASELINE",0,"DAY 1",1,"N","Y","High"
"PROTOCOL001-001-00079","PROTOCOL001","001-10",50,"M","WHITE","HISPANIC OR LATINO",74.1,160,"DRUG 150mg","DRUG 50mg",2023-04-15,28.9,1.77,150,0.94,98.5,94,1.19,17,31,"Y","Y","Y",29.4726786902251,3.38346368811343,0.223057187590737,"High","Q3","Above Median","PFS","Progression-Free Survival",89,"DAYS",1,0,2023-07-13,90,"BASELINE",0,"DAY 1",1,"Y","N","High"
"PROTOCOL001-001-00080","PROTOCOL001","001-01",66,"M","WHITE","NOT HISPANIC OR LATINO",67.9,167,"DRUG 50mg","DRUG 150mg",2023-05-05,24.3,1.76,50,1.31,53.3,51,0.53,30,34,"Y","Y","Y",15.9875431995699,2.77180986898543,-0.677078895741993,"Low","Q2","Below Median","OS","Overall Survival",341,"DAYS",1,0,2024-04-10,342,"BASELINE",0,"DAY 1",1,"N","Y","Low"
"PROTOCOL001-001-00080","PROTOCOL001","001-01",66,"M","WHITE","NOT HISPANIC OR LATINO",67.9,167,"DRUG 50mg","DRUG 150mg",2023-05-05,24.3,1.76,50,1.31,53.3,51,0.53,30,34,"Y","Y","Y",15.9875431995699,2.77180986898543,-0.677078895741993,"Low","Q2","Below Median","PFS","Progression-Free Survival",136,"DAYS",1,0,2023-09-18,137,"BASELINE",0,"DAY 1",1,"Y","N","Low"
"PROTOCOL001-001-00081","PROTOCOL001","001-09",61,"M","WHITE","NOT HISPANIC OR LATINO",84.5,165,"DRUG 100mg","DRUG 50mg",2023-05-13,31,1.92,100,1.3,71.3,63,0.36,27,35,"Y","Y","Y",45.8039452661109,3.82437022859166,1.31317321509877,"High","Q4","Above Median","OS","Overall Survival",57,"DAYS",1,0,2023-07-09,58,"BASELINE",0,"DAY 1",1,"N","Y","High"
"PROTOCOL001-001-00081","PROTOCOL001","001-09",61,"M","WHITE","NOT HISPANIC OR LATINO",84.5,165,"DRUG 100mg","DRUG 50mg",2023-05-13,31,1.92,100,1.3,71.3,63,0.36,27,35,"Y","Y","Y",45.8039452661109,3.82437022859166,1.31317321509877,"High","Q4","Above Median","PFS","Progression-Free Survival",44,"DAYS",1,0,2023-06-26,45,"BASELINE",0,"DAY 1",1,"Y","N","High"
"PROTOCOL001-001-00082","PROTOCOL001","001-06",50,"M","WHITE","NOT HISPANIC OR LATINO",60.6,163,"DRUG 150mg","DRUG 100mg",2023-03-01,22.8,1.65,150,0.59,128.4,74,0.93,26,26,"Y","Y","Y",23.2828538576523,3.14771720373702,-0.190115129822666,"Medium","Q3","Above Median","OS","Overall Survival",243,"DAYS",1,0,2023-10-30,244,"BASELINE",0,"DAY 1",1,"N","Y","Medium"
"PROTOCOL001-001-00082","PROTOCOL001","001-06",50,"M","WHITE","NOT HISPANIC OR LATINO",60.6,163,"DRUG 150mg","DRUG 100mg",2023-03-01,22.8,1.65,150,0.59,128.4,74,0.93,26,26,"Y","Y","Y",23.2828538576523,3.14771720373702,-0.190115129822666,"Medium","Q3","Above Median","PFS","Progression-Free Survival",33,"DAYS",1,0,2023-04-03,34,"BASELINE",0,"DAY 1",1,"Y","N","Medium"
"PROTOCOL001-001-00083","PROTOCOL001","001-07",51,"F","WHITE","NOT HISPANIC OR LATINO",62.9,172,"DRUG 150mg","DRUG 50mg",2023-04-06,21.3,1.74,150,0.79,83.7,102,1.02,24,26,"Y","Y","Y",16.412332507034,2.79803303436947,-0.648724105852977,"Low","Q2","Below Median","OS","Overall Survival",202,"DAYS",1,0,2023-10-25,203,"BASELINE",0,"DAY 1",1,"N","Y","Low"
"PROTOCOL001-001-00083","PROTOCOL001","001-07",51,"F","WHITE","NOT HISPANIC OR LATINO",62.9,172,"DRUG 150mg","DRUG 50mg",2023-04-06,21.3,1.74,150,0.79,83.7,102,1.02,24,26,"Y","Y","Y",16.412332507034,2.79803303436947,-0.648724105852977,"Low","Q2","Below Median","PFS","Progression-Free Survival",25,"DAYS",1,0,2023-05-01,26,"BASELINE",0,"DAY 1",1,"Y","N","Low"
"PROTOCOL001-001-00084","PROTOCOL001","001-01",55,"F","BLACK OR AFRICAN AMERICAN","NOT HISPANIC OR LATINO",67.6,158,"DRUG 100mg","DRUG 50mg",2023-04-19,27.1,1.69,100,0.97,69.9,128,0.52,35,11,"Y","Y","Y",15.3438226116057,2.7307129573082,-0.720047402006707,"Low","Q2","Below Median","OS","Overall Survival",307,"DAYS",1,0,2024-02-20,308,"BASELINE",0,"DAY 1",1,"N","Y","Low"
"PROTOCOL001-001-00084","PROTOCOL001","001-01",55,"F","BLACK OR AFRICAN AMERICAN","NOT HISPANIC OR LATINO",67.6,158,"DRUG 100mg","DRUG 50mg",2023-04-19,27.1,1.69,100,0.97,69.9,128,0.52,35,11,"Y","Y","Y",15.3438226116057,2.7307129573082,-0.720047402006707,"Low","Q2","Below Median","PFS","Progression-Free Survival",195,"DAYS",1,0,2023-10-31,196,"BASELINE",0,"DAY 1",1,"Y","N","Low"
"PROTOCOL001-001-00085","PROTOCOL001","001-03",45,"M","WHITE","NOT HISPANIC OR LATINO",68.7,154,"DRUG 150mg","DRUG 50mg",2023-01-19,29,1.67,150,0.96,94.4,74,0.82,36,28,"Y","Y","Y",39.7878248760852,3.68356095785506,0.911595711595848,"High","Q4","Above Median","OS","Overall Survival",577,"DAYS",1,0,2024-08-18,578,"BASELINE",0,"DAY 1",1,"N","Y","High"
"PROTOCOL001-001-00085","PROTOCOL001","001-03",45,"M","WHITE","NOT HISPANIC OR LATINO",68.7,154,"DRUG 150mg","DRUG 50mg",2023-01-19,29,1.67,150,0.96,94.4,74,0.82,36,28,"Y","Y","Y",39.7878248760852,3.68356095785506,0.911595711595848,"High","Q4","Above Median","PFS","Progression-Free Survival",133,"DAYS",1,0,2023-06-01,134,"BASELINE",0,"DAY 1",1,"Y","N","High"
"PROTOCOL001-001-00086","PROTOCOL001","001-02",57,"M","WHITE","NOT HISPANIC OR LATINO",65.2,160,"DRUG 50mg","DRUG 100mg",2023-03-15,25.5,1.68,50,1.04,72.3,69,0.8,26,10,"Y","Y","Y",13.1254410792671,2.57455241395242,-0.868124910404055,"Low","Q1","Below Median","OS","Overall Survival",315,"DAYS",1,0,2024-01-24,316,"BASELINE",0,"DAY 1",1,"N","Y","Low"
"PROTOCOL001-001-00086","PROTOCOL001","001-02",57,"M","WHITE","NOT HISPANIC OR LATINO",65.2,160,"DRUG 50mg","DRUG 100mg",2023-03-15,25.5,1.68,50,1.04,72.3,69,0.8,26,10,"Y","Y","Y",13.1254410792671,2.57455241395242,-0.868124910404055,"Low","Q1","Below Median","PFS","Progression-Free Survival",287,"DAYS",1,0,2023-12-27,288,"BASELINE",0,"DAY 1",1,"Y","N","Low"
"PROTOCOL001-001-00087","PROTOCOL001","001-05",67,"F","WHITE","NOT HISPANIC OR LATINO",95.9,163,"DRUG 100mg","DRUG 50mg",2023-06-22,36.1,2.01,100,0.85,97.2,63,1.18,15,22,"Y","Y","Y",26.8026552995373,3.28850096094982,0.0448324749828507,"Medium","Q3","Above Median","OS","Overall Survival",144,"DAYS",1,0,2023-11-13,145,"BASELINE",0,"DAY 1",1,"N","Y","Medium"
"PROTOCOL001-001-00087","PROTOCOL001","001-05",67,"F","WHITE","NOT HISPANIC OR LATINO",95.9,163,"DRUG 100mg","DRUG 50mg",2023-06-22,36.1,2.01,100,0.85,97.2,63,1.18,15,22,"Y","Y","Y",26.8026552995373,3.28850096094982,0.0448324749828507,"Medium","Q3","Above Median","PFS","Progression-Free Survival",77,"DAYS",1,0,2023-09-07,78,"BASELINE",0,"DAY 1",1,"Y","N","Medium"
"PROTOCOL001-001-00088","PROTOCOL001","001-10",85,"M","WHITE","HISPANIC OR LATINO",121.4,174,"DRUG 150mg","DRUG 100mg",2023-02-10,40.1,2.33,150,0.94,98.7,95,0.66,26,39,"Y","Y","Y",31.6711177121821,3.45540515238696,0.369803528555685,"High","Q3","Above Median","OS","Overall Survival",390,"DAYS",1,0,2024-03-06,391,"BASELINE",0,"DAY 1",1,"N","Y","High"
"PROTOCOL001-001-00088","PROTOCOL001","001-10",85,"M","WHITE","HISPANIC OR LATINO",121.4,174,"DRUG 150mg","DRUG 100mg",2023-02-10,40.1,2.33,150,0.94,98.7,95,0.66,26,39,"Y","Y","Y",31.6711177121821,3.45540515238696,0.369803528555685,"High","Q3","Above Median","PFS","Progression-Free Survival",26,"DAYS",1,0,2023-03-08,27,"BASELINE",0,"DAY 1",1,"Y","N","High"
"PROTOCOL001-001-00089","PROTOCOL001","001-06",57,"M","WHITE","NOT HISPANIC OR LATINO",103.5,159,"DRUG 150mg","DRUG 150mg",2023-04-20,40.9,2.04,150,1.22,97.8,53,1.09,36,16,"Y","Y","N",41.9781610376004,3.73714950775411,1.05780118464984,"High","Q4","Above Median","OS","Overall Survival",223,"DAYS",1,0,2023-11-29,224,"BASELINE",0,"DAY 1",1,"N","Y","High"
"PROTOCOL001-001-00089","PROTOCOL001","001-06",57,"M","WHITE","NOT HISPANIC OR LATINO",103.5,159,"DRUG 150mg","DRUG 150mg",2023-04-20,40.9,2.04,150,1.22,97.8,53,1.09,36,16,"Y","Y","N",41.9781610376004,3.73714950775411,1.05780118464984,"High","Q4","Above Median","PFS","Progression-Free Survival",223,"DAYS",1,0,2023-11-29,224,"BASELINE",0,"DAY 1",1,"Y","N","High"
"PROTOCOL001-001-00090","PROTOCOL001","001-07",65,"M","BLACK OR AFRICAN AMERICAN","NOT HISPANIC OR LATINO",69.1,154,"DRUG 150mg","DRUG 150mg",2023-04-24,29.1,1.68,150,0.5,150,108,0.59,36,12,"Y","Y","Y",23.2688822136854,3.14711694065059,-0.191047740465455,"Medium","Q3","Above Median","OS","Overall Survival",334,"DAYS",1,0,2024-03-23,335,"BASELINE",0,"DAY 1",1,"N","Y","Medium"
"PROTOCOL001-001-00090","PROTOCOL001","001-07",65,"M","BLACK OR AFRICAN AMERICAN","NOT HISPANIC OR LATINO",69.1,154,"DRUG 150mg","DRUG 150mg",2023-04-24,29.1,1.68,150,0.5,150,108,0.59,36,12,"Y","Y","Y",23.2688822136854,3.14711694065059,-0.191047740465455,"Medium","Q3","Above Median","PFS","Progression-Free Survival",126,"DAYS",1,0,2023-08-28,127,"BASELINE",0,"DAY 1",1,"Y","N","Medium"
"PROTOCOL001-001-00091","PROTOCOL001","001-09",67,"M","OTHER","NOT HISPANIC OR LATINO",66.2,172,"DRUG 150mg","DRUG 100mg",2023-03-16,22.4,1.78,150,1.02,65.8,102,0.64,39,35,"Y","Y","Y",30.7045903588491,3.42441216650524,0.305287591962686,"High","Q3","Above Median","OS","Overall Survival",196,"DAYS",1,0,2023-09-28,197,"BASELINE",0,"DAY 1",1,"N","Y","High"
"PROTOCOL001-001-00091","PROTOCOL001","001-09",67,"M","OTHER","NOT HISPANIC OR LATINO",66.2,172,"DRUG 150mg","DRUG 100mg",2023-03-16,22.4,1.78,150,1.02,65.8,102,0.64,39,35,"Y","Y","Y",30.7045903588491,3.42441216650524,0.305287591962686,"High","Q3","Above Median","PFS","Progression-Free Survival",174,"DAYS",1,0,2023-09-06,175,"BASELINE",0,"DAY 1",1,"Y","N","High"
"PROTOCOL001-001-00092","PROTOCOL001","001-10",48,"M","ASIAN","NOT HISPANIC OR LATINO",81.9,150,"DRUG 150mg","DRUG 50mg",2023-03-11,36.4,1.77,150,0.83,126.1,55,0.67,34,30,"Y","Y","Y",25.9057266153173,3.25446404910392,-0.01503773347016,"Medium","Q3","Above Median","OS","Overall Survival",162,"DAYS",1,0,2023-08-20,163,"BASELINE",0,"DAY 1",1,"N","Y","Medium"
"PROTOCOL001-001-00092","PROTOCOL001","001-10",48,"M","ASIAN","NOT HISPANIC OR LATINO",81.9,150,"DRUG 150mg","DRUG 50mg",2023-03-11,36.4,1.77,150,0.83,126.1,55,0.67,34,30,"Y","Y","Y",25.9057266153173,3.25446404910392,-0.01503773347016,"Medium","Q3","Above Median","PFS","Progression-Free Survival",117,"DAYS",1,0,2023-07-06,118,"BASELINE",0,"DAY 1",1,"Y","N","Medium"
"PROTOCOL001-001-00093","PROTOCOL001","001-04",70,"F","WHITE","NOT HISPANIC OR LATINO",76.5,180,"DRUG 150mg","DRUG 50mg",2023-05-19,23.6,1.96,150,1.01,62.6,73,0.43,28,35,"Y","Y","Y",54.7975834972015,4.00364609621528,1.91350076077714,"High","Q4","Above Median","OS","Overall Survival",199,"DAYS",1,0,2023-12-04,200,"BASELINE",0,"DAY 1",1,"N","Y","High"
"PROTOCOL001-001-00093","PROTOCOL001","001-04",70,"F","WHITE","NOT HISPANIC OR LATINO",76.5,180,"DRUG 150mg","DRUG 50mg",2023-05-19,23.6,1.96,150,1.01,62.6,73,0.43,28,35,"Y","Y","Y",54.7975834972015,4.00364609621528,1.91350076077714,"High","Q4","Above Median","PFS","Progression-Free Survival",155,"DAYS",1,0,2023-10-21,156,"BASELINE",0,"DAY 1",1,"Y","N","High"
"PROTOCOL001-001-00094","PROTOCOL001","001-02",63,"M","ASIAN","NOT HISPANIC OR LATINO",85.1,167,"DRUG 100mg","DRUG 150mg",2023-02-27,30.5,1.94,100,1.33,68.4,86,0.22,46,24,"Y","Y","Y",55.9144201430339,4.02382231009702,1.98804987930833,"High","Q4","Above Median","OS","Overall Survival",395,"DAYS",1,0,2024-03-28,396,"BASELINE",0,"DAY 1",1,"N","Y","High"
"PROTOCOL001-001-00094","PROTOCOL001","001-02",63,"M","ASIAN","NOT HISPANIC OR LATINO",85.1,167,"DRUG 100mg","DRUG 150mg",2023-02-27,30.5,1.94,100,1.33,68.4,86,0.22,46,24,"Y","Y","Y",55.9144201430339,4.02382231009702,1.98804987930833,"High","Q4","Above Median","PFS","Progression-Free Survival",9,"DAYS",1,0,2023-03-08,10,"BASELINE",0,"DAY 1",1,"Y","N","High"
"PROTOCOL001-001-00095","PROTOCOL001","001-04",41,"M","WHITE","NOT HISPANIC OR LATINO",63.8,168,"DRUG 100mg","DRUG 50mg",2023-06-01,22.6,1.72,100,0.98,89.5,83,0.99,24,33,"Y","Y","Y",28.2268490578513,3.34027361923986,0.139897755743581,"Medium","Q3","Above Median","OS","Overall Survival",422,"DAYS",0,1,2024-07-27,423,"BASELINE",0,"DAY 1",1,"N","Y","Medium"
"PROTOCOL001-001-00095","PROTOCOL001","001-04",41,"M","WHITE","NOT HISPANIC OR LATINO",63.8,168,"DRUG 100mg","DRUG 50mg",2023-06-01,22.6,1.72,100,0.98,89.5,83,0.99,24,33,"Y","Y","Y",28.2268490578513,3.34027361923986,0.139897755743581,"Medium","Q3","Above Median","PFS","Progression-Free Survival",242,"DAYS",1,0,2024-01-29,243,"BASELINE",0,"DAY 1",1,"Y","N","Medium"
"PROTOCOL001-001-00096","PROTOCOL001","001-03",55,"F","WHITE","NOT HISPANIC OR LATINO",90.4,174,"DRUG 100mg","DRUG 150mg",2023-01-21,29.9,2.05,100,0.84,108,71,0.98,22,27,"Y","Y","Y",19.4125400678924,2.96591925249804,-0.448459519346768,"Medium","Q2","Below Median","OS","Overall Survival",348,"DAYS",1,0,2024-01-04,349,"BASELINE",0,"DAY 1",1,"N","Y","Medium"
"PROTOCOL001-001-00096","PROTOCOL001","001-03",55,"F","WHITE","NOT HISPANIC OR LATINO",90.4,174,"DRUG 100mg","DRUG 150mg",2023-01-21,29.9,2.05,100,0.84,108,71,0.98,22,27,"Y","Y","Y",19.4125400678924,2.96591925249804,-0.448459519346768,"Medium","Q2","Below Median","PFS","Progression-Free Survival",233,"DAYS",1,0,2023-09-11,234,"BASELINE",0,"DAY 1",1,"Y","N","Medium"
"PROTOCOL001-001-00097","PROTOCOL001","001-06",66,"M","BLACK OR AFRICAN AMERICAN","NOT HISPANIC OR LATINO",64.6,168,"DRUG 100mg","DRUG 100mg",2023-01-18,22.9,1.73,100,1.03,64.5,94,0.85,27,27,"Y","Y","Y",26.8409699040471,3.289929447965,0.0473899841796848,"Medium","Q3","Above Median","OS","Overall Survival",269,"DAYS",1,0,2023-10-14,270,"BASELINE",0,"DAY 1",1,"N","Y","Medium"
"PROTOCOL001-001-00097","PROTOCOL001","001-06",66,"M","BLACK OR AFRICAN AMERICAN","NOT HISPANIC OR LATINO",64.6,168,"DRUG 100mg","DRUG 100mg",2023-01-18,22.9,1.73,100,1.03,64.5,94,0.85,27,27,"Y","Y","Y",26.8409699040471,3.289929447965,0.0473899841796848,"Medium","Q3","Above Median","PFS","Progression-Free Survival",258,"DAYS",1,0,2023-10-03,259,"BASELINE",0,"DAY 1",1,"Y","N","Medium"
"PROTOCOL001-001-00098","PROTOCOL001","001-08",53,"F","WHITE","HISPANIC OR LATINO",55.8,167,"DRUG 100mg","DRUG 150mg",2023-04-07,20,1.62,100,1.03,55.6,58,1.29,29,33,"Y","Y","Y",52.7233755424679,3.96505891588485,1.77504687385214,"High","Q4","Above Median","OS","Overall Survival",380,"DAYS",1,0,2024-04-21,381,"BASELINE",0,"DAY 1",1,"N","Y","High"
"PROTOCOL001-001-00098","PROTOCOL001","001-08",53,"F","WHITE","HISPANIC OR LATINO",55.8,167,"DRUG 100mg","DRUG 150mg",2023-04-07,20,1.62,100,1.03,55.6,58,1.29,29,33,"Y","Y","Y",52.7233755424679,3.96505891588485,1.77504687385214,"High","Q4","Above Median","PFS","Progression-Free Survival",65,"DAYS",1,0,2023-06-11,66,"BASELINE",0,"DAY 1",1,"Y","N","High"
"PROTOCOL001-001-00099","PROTOCOL001","001-07",52,"M","WHITE","NOT HISPANIC OR LATINO",73.6,167,"DRUG 150mg","DRUG 50mg",2023-06-01,26.4,1.82,150,0.73,123.2,44,1.17,27,30,"Y","Y","Y",53.7124894417568,3.98364555253152,1.84107046789707,"High","Q4","Above Median","OS","Overall Survival",491,"DAYS",0,1,2024-10-04,492,"BASELINE",0,"DAY 1",1,"N","Y","High"
"PROTOCOL001-001-00099","PROTOCOL001","001-07",52,"M","WHITE","NOT HISPANIC OR LATINO",73.6,167,"DRUG 150mg","DRUG 50mg",2023-06-01,26.4,1.82,150,0.73,123.2,44,1.17,27,30,"Y","Y","Y",53.7124894417568,3.98364555253152,1.84107046789707,"High","Q4","Above Median","PFS","Progression-Free Survival",57,"DAYS",1,0,2023-07-28,58,"BASELINE",0,"DAY 1",1,"Y","N","High"
"PROTOCOL001-001-00100","PROTOCOL001","001-04",48,"F","BLACK OR AFRICAN AMERICAN","NOT HISPANIC OR LATINO",102.7,164,"DRUG 100mg","DRUG 100mg",2023-04-11,38.2,2.08,100,1.37,81.4,91,0.93,29,40,"Y","Y","Y",24.33347069524,3.19185279747421,-0.119986199644325,"Medium","Q3","Above Median","OS","Overall Survival",269,"DAYS",1,0,2024-01-05,270,"BASELINE",0,"DAY 1",1,"N","Y","Medium"
"PROTOCOL001-001-00100","PROTOCOL001","001-04",48,"F","BLACK OR AFRICAN AMERICAN","NOT HISPANIC OR LATINO",102.7,164,"DRUG 100mg","DRUG 100mg",2023-04-11,38.2,2.08,100,1.37,81.4,91,0.93,29,40,"Y","Y","Y",24.33347069524,3.19185279747421,-0.119986199644325,"Medium","Q3","Above Median","PFS","Progression-Free Survival",202,"DAYS",1,0,2023-10-30,203,"BASELINE",0,"DAY 1",1,"Y","N","Medium"
"PROTOCOL001-001-00101","PROTOCOL001","001-02",44,"M","WHITE","NOT HISPANIC OR LATINO",61.1,166,"DRUG 150mg","DRUG 100mg",2023-03-12,22.2,1.68,150,0.81,100.6,99,0.79,42,21,"Y","Y","Y",35.7757901428222,3.57727141165067,0.643791414523952,"High","Q4","Above Median","OS","Overall Survival",558,"DAYS",1,0,2024-09-20,559,"BASELINE",0,"DAY 1",1,"N","Y","High"
"PROTOCOL001-001-00101","PROTOCOL001","001-02",44,"M","WHITE","NOT HISPANIC OR LATINO",61.1,166,"DRUG 150mg","DRUG 100mg",2023-03-12,22.2,1.68,150,0.81,100.6,99,0.79,42,21,"Y","Y","Y",35.7757901428222,3.57727141165067,0.643791414523952,"High","Q4","Above Median","PFS","Progression-Free Survival",468,"DAYS",1,0,2024-06-22,469,"BASELINE",0,"DAY 1",1,"Y","N","High"
"PROTOCOL001-001-00102","PROTOCOL001","001-03",67,"M","BLACK OR AFRICAN AMERICAN","NOT HISPANIC OR LATINO",59.5,173,"DRUG 50mg","DRUG 100mg",2023-02-28,19.9,1.71,50,0.99,60.9,81,0.81,35,26,"Y","Y","Y",12.5451411620804,2.52933343221266,-0.906860071424627,"Low","Q1","Below Median","OS","Overall Survival",145,"DAYS",1,0,2023-07-23,146,"BASELINE",0,"DAY 1",1,"N","Y","Low"
"PROTOCOL001-001-00102","PROTOCOL001","001-03",67,"M","BLACK OR AFRICAN AMERICAN","NOT HISPANIC OR LATINO",59.5,173,"DRUG 50mg","DRUG 100mg",2023-02-28,19.9,1.71,50,0.99,60.9,81,0.81,35,26,"Y","Y","Y",12.5451411620804,2.52933343221266,-0.906860071424627,"Low","Q1","Below Median","PFS","Progression-Free Survival",79,"DAYS",1,0,2023-05-18,80,"BASELINE",0,"DAY 1",1,"Y","N","Low"
"PROTOCOL001-001-00103","PROTOCOL001","001-08",73,"M","WHITE","NOT HISPANIC OR LATINO",55.2,162,"DRUG 50mg","DRUG 50mg",2023-01-29,21,1.58,50,0.89,57.7,107,0.56,35,11,"Y","Y","Y",18.8714167807504,2.93764843768286,-0.484579630755782,"Medium","Q2","Below Median","OS","Overall Survival",165,"DAYS",1,0,2023-07-13,166,"BASELINE",0,"DAY 1",1,"N","Y","Medium"
"PROTOCOL001-001-00103","PROTOCOL001","001-08",73,"M","WHITE","NOT HISPANIC OR LATINO",55.2,162,"DRUG 50mg","DRUG 50mg",2023-01-29,21,1.58,50,0.89,57.7,107,0.56,35,11,"Y","Y","Y",18.8714167807504,2.93764843768286,-0.484579630755782,"Medium","Q2","Below Median","PFS","Progression-Free Survival",103,"DAYS",1,0,2023-05-12,104,"BASELINE",0,"DAY 1",1,"Y","N","Medium"
"PROTOCOL001-001-00104","PROTOCOL001","001-09",56,"F","WHITE","NOT HISPANIC OR LATINO",73.7,175,"DRUG 150mg","DRUG 50mg",2023-07-07,24.1,1.89,150,1.14,64.1,88,0.2,25,26,"Y","Y","Y",46.7456032122707,3.84472020237643,1.37602911269674,"High","Q4","Above Median","OS","Overall Survival",303,"DAYS",1,0,2024-05-05,304,"BASELINE",0,"DAY 1",1,"N","Y","High"
"PROTOCOL001-001-00104","PROTOCOL001","001-09",56,"F","WHITE","NOT HISPANIC OR LATINO",73.7,175,"DRUG 150mg","DRUG 50mg",2023-07-07,24.1,1.89,150,1.14,64.1,88,0.2,25,26,"Y","Y","Y",46.7456032122707,3.84472020237643,1.37602911269674,"High","Q4","Above Median","PFS","Progression-Free Survival",170,"DAYS",1,0,2023-12-24,171,"BASELINE",0,"DAY 1",1,"Y","N","High"
"PROTOCOL001-001-00105","PROTOCOL001","001-09",52,"M","WHITE","NOT HISPANIC OR LATINO",86.6,189,"DRUG 100mg","DRUG 100mg",2023-03-23,24.2,2.14,100,1.01,104.8,108,0.98,26,26,"Y","Y","Y",25.5018293132605,3.23875018736627,-0.0419979769021939,"Medium","Q3","Above Median","OS","Overall Survival",167,"DAYS",1,0,2023-09-06,168,"BASELINE",0,"DAY 1",1,"N","Y","Medium"
"PROTOCOL001-001-00105","PROTOCOL001","001-09",52,"M","WHITE","NOT HISPANIC OR LATINO",86.6,189,"DRUG 100mg","DRUG 100mg",2023-03-23,24.2,2.14,100,1.01,104.8,108,0.98,26,26,"Y","Y","Y",25.5018293132605,3.23875018736627,-0.0419979769021939,"Medium","Q3","Above Median","PFS","Progression-Free Survival",163,"DAYS",1,0,2023-09-02,164,"BASELINE",0,"DAY 1",1,"Y","N","Medium"
"PROTOCOL001-001-00106","PROTOCOL001","001-04",76,"F","WHITE","NOT HISPANIC OR LATINO",72.6,186,"DRUG 50mg","DRUG 100mg",2023-06-26,21,1.96,50,1.33,41.2,114,0.7,50,26,"Y","Y","Y",21.8164993709942,3.08266653540756,-0.28799464948433,"Medium","Q2","Below Median","OS","Overall Survival",306,"DAYS",1,0,2024-04-27,307,"BASELINE",0,"DAY 1",1,"N","Y","Medium"
"PROTOCOL001-001-00106","PROTOCOL001","001-04",76,"F","WHITE","NOT HISPANIC OR LATINO",72.6,186,"DRUG 50mg","DRUG 100mg",2023-06-26,21,1.96,50,1.33,41.2,114,0.7,50,26,"Y","Y","Y",21.8164993709942,3.08266653540756,-0.28799464948433,"Medium","Q2","Below Median","PFS","Progression-Free Survival",150,"DAYS",1,0,2023-11-23,151,"BASELINE",0,"DAY 1",1,"Y","N","Medium"
"PROTOCOL001-001-00107","PROTOCOL001","001-08",56,"F","BLACK OR AFRICAN AMERICAN","NOT HISPANIC OR LATINO",87.9,169,"DRUG 150mg","DRUG 50mg",2023-04-04,30.8,1.99,150,1.36,64.1,89,1.6,20,28,"Y","Y","N",43.6756338648204,3.77679036913336,1.17110790991903,"High","Q4","Above Median","OS","Overall Survival",241,"DAYS",1,0,2023-12-01,242,"BASELINE",0,"DAY 1",1,"N","Y","High"
"PROTOCOL001-001-00107","PROTOCOL001","001-08",56,"F","BLACK OR AFRICAN AMERICAN","NOT HISPANIC OR LATINO",87.9,169,"DRUG 150mg","DRUG 50mg",2023-04-04,30.8,1.99,150,1.36,64.1,89,1.6,20,28,"Y","Y","N",43.6756338648204,3.77679036913336,1.17110790991903,"High","Q4","Above Median","PFS","Progression-Free Survival",234,"DAYS",1,0,2023-11-24,235,"BASELINE",0,"DAY 1",1,"Y","N","High"
"PROTOCOL001-001-00108","PROTOCOL001","001-02",59,"M","ASIAN","NOT HISPANIC OR LATINO",89.5,154,"DRUG 150mg","DRUG 50mg",2023-06-06,37.7,1.87,150,1.2,83.9,55,0.77,26,23,"Y","Y","Y",55.042742940462,4.00811002778418,1.92986521341475,"High","Q4","Above Median","OS","Overall Survival",219,"DAYS",1,0,2024-01-11,220,"BASELINE",0,"DAY 1",1,"N","Y","High"
"PROTOCOL001-001-00108","PROTOCOL001","001-02",59,"M","ASIAN","NOT HISPANIC OR LATINO",89.5,154,"DRUG 150mg","DRUG 50mg",2023-06-06,37.7,1.87,150,1.2,83.9,55,0.77,26,23,"Y","Y","Y",55.042742940462,4.00811002778418,1.92986521341475,"High","Q4","Above Median","PFS","Progression-Free Survival",31,"DAYS",1,0,2023-07-07,32,"BASELINE",0,"DAY 1",1,"Y","N","High"
"PROTOCOL001-001-00109","PROTOCOL001","001-04",64,"M","WHITE","NOT HISPANIC OR LATINO",84.2,162,"DRUG 100mg","DRUG 50mg",2023-02-18,32.1,1.89,100,1.06,83.8,90,0.67,35,26,"Y","Y","Y",26.1292299914701,3.26305461072748,-0.00011882859440132,"Medium","Q3","Above Median","OS","Overall Survival",287,"DAYS",1,0,2023-12-02,288,"BASELINE",0,"DAY 1",1,"N","Y","Medium"
"PROTOCOL001-001-00109","PROTOCOL001","001-04",64,"M","WHITE","NOT HISPANIC OR LATINO",84.2,162,"DRUG 100mg","DRUG 50mg",2023-02-18,32.1,1.89,100,1.06,83.8,90,0.67,35,26,"Y","Y","Y",26.1292299914701,3.26305461072748,-0.00011882859440132,"Medium","Q3","Above Median","PFS","Progression-Free Survival",23,"DAYS",1,0,2023-03-13,24,"BASELINE",0,"DAY 1",1,"Y","N","Medium"
"PROTOCOL001-001-00110","PROTOCOL001","001-05",44,"F","BLACK OR AFRICAN AMERICAN","NOT HISPANIC OR LATINO",112.5,159,"DRUG 100mg","DRUG 50mg",2023-02-06,44.5,2.11,100,0.61,150,73,0.98,19,22,"Y","Y","Y",10.433037308857,2.34497743552247,-1.0478435188175,"Low","Q1","Below Median","OS","Overall Survival",385,"DAYS",1,0,2024-02-26,386,"BASELINE",0,"DAY 1",1,"N","Y","Low"
"PROTOCOL001-001-00110","PROTOCOL001","001-05",44,"F","BLACK OR AFRICAN AMERICAN","NOT HISPANIC OR LATINO",112.5,159,"DRUG 100mg","DRUG 50mg",2023-02-06,44.5,2.11,100,0.61,150,73,0.98,19,22,"Y","Y","Y",10.433037308857,2.34497743552247,-1.0478435188175,"Low","Q1","Below Median","PFS","Progression-Free Survival",108,"DAYS",1,0,2023-05-25,109,"BASELINE",0,"DAY 1",1,"Y","N","Low"
"PROTOCOL001-001-00111","PROTOCOL001","001-05",50,"M","WHITE","NOT HISPANIC OR LATINO",92.3,163,"DRUG 50mg","DRUG 150mg",2023-05-27,34.7,1.97,50,1.05,109.9,78,1.36,32,23,"Y","Y","Y",12.2711473897479,2.50725076614776,-0.925149222561137,"Low","Q1","Below Median","OS","Overall Survival",213,"DAYS",1,0,2023-12-26,214,"BASELINE",0,"DAY 1",1,"N","Y","Low"
"PROTOCOL001-001-00111","PROTOCOL001","001-05",50,"M","WHITE","NOT HISPANIC OR LATINO",92.3,163,"DRUG 50mg","DRUG 150mg",2023-05-27,34.7,1.97,50,1.05,109.9,78,1.36,32,23,"Y","Y","Y",12.2711473897479,2.50725076614776,-0.925149222561137,"Low","Q1","Below Median","PFS","Progression-Free Survival",157,"DAYS",1,0,2023-10-31,158,"BASELINE",0,"DAY 1",1,"Y","N","Low"
"PROTOCOL001-001-00112","PROTOCOL001","001-08",50,"M","WHITE","NOT HISPANIC OR LATINO",103.1,179,"DRUG 100mg","DRUG 100mg",2023-02-25,32.2,2.21,100,1.1,117.2,71,1.39,41,11,"Y","Y","Y",17.5149145659258,2.8630527788714,-0.575126484477089,"Medium","Q2","Below Median","OS","Overall Survival",94,"DAYS",1,0,2023-05-30,95,"BASELINE",0,"DAY 1",1,"N","Y","Medium"
"PROTOCOL001-001-00112","PROTOCOL001","001-08",50,"M","WHITE","NOT HISPANIC OR LATINO",103.1,179,"DRUG 100mg","DRUG 100mg",2023-02-25,32.2,2.21,100,1.1,117.2,71,1.39,41,11,"Y","Y","Y",17.5149145659258,2.8630527788714,-0.575126484477089,"Medium","Q2","Below Median","PFS","Progression-Free Survival",40,"DAYS",1,0,2023-04-06,41,"BASELINE",0,"DAY 1",1,"Y","N","Medium"
"PROTOCOL001-001-00113","PROTOCOL001","001-03",50,"M","BLACK OR AFRICAN AMERICAN","NOT HISPANIC OR LATINO",71.4,167,"DRUG 100mg","DRUG 100mg",2023-02-10,25.6,1.8,100,0.77,115.9,56,0.81,28,22,"Y","Y","Y",15.9207942115634,2.7676260668329,-0.681534406973025,"Low","Q2","Below Median","OS","Overall Survival",271,"DAYS",1,0,2023-11-08,272,"BASELINE",0,"DAY 1",1,"N","Y","Low"
"PROTOCOL001-001-00113","PROTOCOL001","001-03",50,"M","BLACK OR AFRICAN AMERICAN","NOT HISPANIC OR LATINO",71.4,167,"DRUG 100mg","DRUG 100mg",2023-02-10,25.6,1.8,100,0.77,115.9,56,0.81,28,22,"Y","Y","Y",15.9207942115634,2.7676260668329,-0.681534406973025,"Low","Q2","Below Median","PFS","Progression-Free Survival",73,"DAYS",1,0,2023-04-24,74,"BASELINE",0,"DAY 1",1,"Y","N","Low"
"PROTOCOL001-001-00114","PROTOCOL001","001-07",65,"F","WHITE","NOT HISPANIC OR LATINO",68.2,176,"DRUG 150mg","DRUG 50mg",2023-02-10,22,1.84,150,1.41,42.8,112,0.47,26,35,"Y","Y","N",69.2954214139914,4.23837883495103,2.88123497807554,"High","Q4","Above Median","OS","Overall Survival",262,"DAYS",1,0,2023-10-30,263,"BASELINE",0,"DAY 1",1,"N","Y","High"
"PROTOCOL001-001-00114","PROTOCOL001","001-07",65,"F","WHITE","NOT HISPANIC OR LATINO",68.2,176,"DRUG 150mg","DRUG 50mg",2023-02-10,22,1.84,150,1.41,42.8,112,0.47,26,35,"Y","Y","N",69.2954214139914,4.23837883495103,2.88123497807554,"High","Q4","Above Median","PFS","Progression-Free Survival",73,"DAYS",1,0,2023-04-24,74,"BASELINE",0,"DAY 1",1,"Y","N","High"
"PROTOCOL001-001-00115","PROTOCOL001","001-08",33,"F","BLACK OR AFRICAN AMERICAN","NOT HISPANIC OR LATINO",64.2,168,"DRUG 100mg","DRUG 150mg",2023-07-04,22.7,1.73,100,1.33,61,101,0.67,23,26,"Y","Y","Y",20.5701309529146,3.02384006985338,-0.37119004540877,"Medium","Q2","Below Median","OS","Overall Survival",248,"DAYS",1,0,2024-03-08,249,"BASELINE",0,"DAY 1",1,"N","Y","Medium"
"PROTOCOL001-001-00115","PROTOCOL001","001-08",33,"F","BLACK OR AFRICAN AMERICAN","NOT HISPANIC OR LATINO",64.2,168,"DRUG 100mg","DRUG 150mg",2023-07-04,22.7,1.73,100,1.33,61,101,0.67,23,26,"Y","Y","Y",20.5701309529146,3.02384006985338,-0.37119004540877,"Medium","Q2","Below Median","PFS","Progression-Free Survival",57,"DAYS",1,0,2023-08-30,58,"BASELINE",0,"DAY 1",1,"Y","N","Medium"
"PROTOCOL001-001-00116","PROTOCOL001","001-05",61,"M","WHITE","NOT HISPANIC OR LATINO",82.3,178,"DRUG 50mg","DRUG 50mg",2023-05-24,26,2,50,0.54,150,87,0.76,20,31,"Y","Y","Y",8.53190869825301,2.14381309945633,-1.17474431730385,"Low","Q1","Below Median","OS","Overall Survival",254,"DAYS",1,0,2024-02-02,255,"BASELINE",0,"DAY 1",1,"N","Y","Low"
"PROTOCOL001-001-00116","PROTOCOL001","001-05",61,"M","WHITE","NOT HISPANIC OR LATINO",82.3,178,"DRUG 50mg","DRUG 50mg",2023-05-24,26,2,50,0.54,150,87,0.76,20,31,"Y","Y","Y",8.53190869825301,2.14381309945633,-1.17474431730385,"Low","Q1","Below Median","PFS","Progression-Free Survival",229,"DAYS",1,0,2024-01-08,230,"BASELINE",0,"DAY 1",1,"Y","N","Low"
"PROTOCOL001-001-00117","PROTOCOL001","001-04",72,"M","WHITE","NOT HISPANIC OR LATINO",87.5,181,"DRUG 100mg","DRUG 100mg",2023-01-16,26.7,2.08,100,1.1,75.1,88,0.61,29,25,"Y","Y","Y",45.2324110651294,3.81181388883728,1.27502316777305,"High","Q4","Above Median","OS","Overall Survival",222,"DAYS",1,0,2023-08-26,223,"BASELINE",0,"DAY 1",1,"N","Y","High"
"PROTOCOL001-001-00117","PROTOCOL001","001-04",72,"M","WHITE","NOT HISPANIC OR LATINO",87.5,181,"DRUG 100mg","DRUG 100mg",2023-01-16,26.7,2.08,100,1.1,75.1,88,0.61,29,25,"Y","Y","Y",45.2324110651294,3.81181388883728,1.27502316777305,"High","Q4","Above Median","PFS","Progression-Free Survival",128,"DAYS",1,0,2023-05-24,129,"BASELINE",0,"DAY 1",1,"Y","N","High"
"PROTOCOL001-001-00118","PROTOCOL001","001-09",58,"M","WHITE","NOT HISPANIC OR LATINO",88.9,178,"DRUG 50mg","DRUG 50mg",2023-03-25,28.1,2.07,50,0.99,102.3,70,0.91,21,26,"Y","Y","Y",12.3217305507653,2.51136441502374,-0.921772784224844,"Low","Q1","Below Median","OS","Overall Survival",444,"DAYS",1,0,2024-06-11,445,"BASELINE",0,"DAY 1",1,"N","Y","Low"
"PROTOCOL001-001-00118","PROTOCOL001","001-09",58,"M","WHITE","NOT HISPANIC OR LATINO",88.9,178,"DRUG 50mg","DRUG 50mg",2023-03-25,28.1,2.07,50,0.99,102.3,70,0.91,21,26,"Y","Y","Y",12.3217305507653,2.51136441502374,-0.921772784224844,"Low","Q1","Below Median","PFS","Progression-Free Survival",94,"DAYS",1,0,2023-06-27,95,"BASELINE",0,"DAY 1",1,"Y","N","Low"
"PROTOCOL001-001-00119","PROTOCOL001","001-08",54,"M","WHITE","NOT HISPANIC OR LATINO",89.1,167,"DRUG 150mg","DRUG 50mg",2023-07-07,31.9,1.98,150,0.75,141.9,103,1.01,29,20,"Y","Y","Y",23.6052459370458,3.16146897279785,-0.168595379884385,"Medium","Q3","Above Median","OS","Overall Survival",598,"DAYS",1,0,2025-02-24,599,"BASELINE",0,"DAY 1",1,"N","Y","Medium"
"PROTOCOL001-001-00119","PROTOCOL001","001-08",54,"M","WHITE","NOT HISPANIC OR LATINO",89.1,167,"DRUG 150mg","DRUG 50mg",2023-07-07,31.9,1.98,150,0.75,141.9,103,1.01,29,20,"Y","Y","Y",23.6052459370458,3.16146897279785,-0.168595379884385,"Medium","Q3","Above Median","PFS","Progression-Free Survival",60,"DAYS",1,0,2023-09-05,61,"BASELINE",0,"DAY 1",1,"Y","N","Medium"
"PROTOCOL001-001-00120","PROTOCOL001","001-08",47,"F","WHITE","NOT HISPANIC OR LATINO",66.6,189,"DRUG 50mg","DRUG 100mg",2023-02-05,18.6,1.91,50,0.93,78.6,88,1.01,21,19,"Y","Y","Y",8.3375895343973,2.12077414994238,-1.18771516889009,"Low","Q1","Below Median","OS","Overall Survival",273,"DAYS",1,0,2023-11-05,274,"BASELINE",0,"DAY 1",1,"N","Y","Low"
"PROTOCOL001-001-00120","PROTOCOL001","001-08",47,"F","WHITE","NOT HISPANIC OR LATINO",66.6,189,"DRUG 50mg","DRUG 100mg",2023-02-05,18.6,1.91,50,0.93,78.6,88,1.01,21,19,"Y","Y","Y",8.3375895343973,2.12077414994238,-1.18771516889009,"Low","Q1","Below Median","PFS","Progression-Free Survival",119,"DAYS",1,0,2023-06-04,120,"BASELINE",0,"DAY 1",1,"Y","N","Low"
"PROTOCOL001-001-00121","PROTOCOL001","001-04",64,"F","WHITE","NOT HISPANIC OR LATINO",85.3,183,"DRUG 150mg","DRUG 150mg",2023-05-08,25.5,2.08,150,1.14,67.1,111,0.54,40,25,"Y","Y","Y",26.5397887184755,3.27864506800107,0.0272860665778333,"Medium","Q3","Above Median","OS","Overall Survival",322,"DAYS",1,0,2024-03-25,323,"BASELINE",0,"DAY 1",1,"N","Y","Medium"
"PROTOCOL001-001-00121","PROTOCOL001","001-04",64,"F","WHITE","NOT HISPANIC OR LATINO",85.3,183,"DRUG 150mg","DRUG 150mg",2023-05-08,25.5,2.08,150,1.14,67.1,111,0.54,40,25,"Y","Y","Y",26.5397887184755,3.27864506800107,0.0272860665778333,"Medium","Q3","Above Median","PFS","Progression-Free Survival",76,"DAYS",1,0,2023-07-23,77,"BASELINE",0,"DAY 1",1,"Y","N","Medium"
"PROTOCOL001-001-00122","PROTOCOL001","001-05",40,"F","BLACK OR AFRICAN AMERICAN","NOT HISPANIC OR LATINO",78.3,165,"DRUG 100mg","DRUG 50mg",2023-03-12,28.8,1.86,100,0.94,98.3,90,0.27,24,23,"Y","Y","Y",9.93904031627146,2.29647046834865,-1.08081793856969,"Low","Q1","Below Median","OS","Overall Survival",556,"DAYS",1,0,2024-09-18,557,"BASELINE",0,"DAY 1",1,"N","Y","Low"
"PROTOCOL001-001-00122","PROTOCOL001","001-05",40,"F","BLACK OR AFRICAN AMERICAN","NOT HISPANIC OR LATINO",78.3,165,"DRUG 100mg","DRUG 50mg",2023-03-12,28.8,1.86,100,0.94,98.3,90,0.27,24,23,"Y","Y","Y",9.93904031627146,2.29647046834865,-1.08081793856969,"Low","Q1","Below Median","PFS","Progression-Free Survival",524,"DAYS",1,0,2024-08-17,525,"BASELINE",0,"DAY 1",1,"Y","N","Low"
"PROTOCOL001-001-00123","PROTOCOL001","001-05",60,"F","WHITE","HISPANIC OR LATINO",59.9,161,"DRUG 150mg","DRUG 50mg",2023-02-02,23.1,1.63,150,1.11,51,81,1.11,24,27,"Y","Y","Y",27.6226586728269,3.31863640232128,0.0995679001674195,"Medium","Q3","Above Median","OS","Overall Survival",86,"DAYS",1,0,2023-04-29,87,"BASELINE",0,"DAY 1",1,"N","Y","Medium"
"PROTOCOL001-001-00123","PROTOCOL001","001-05",60,"F","WHITE","HISPANIC OR LATINO",59.9,161,"DRUG 150mg","DRUG 50mg",2023-02-02,23.1,1.63,150,1.11,51,81,1.11,24,27,"Y","Y","Y",27.6226586728269,3.31863640232128,0.0995679001674195,"Medium","Q3","Above Median","PFS","Progression-Free Survival",67,"DAYS",1,0,2023-04-10,68,"BASELINE",0,"DAY 1",1,"Y","N","Medium"
"PROTOCOL001-001-00124","PROTOCOL001","001-09",48,"M","WHITE","NOT HISPANIC OR LATINO",80.6,189,"DRUG 50mg","DRUG 100mg",2023-04-11,22.6,2.07,50,1.07,96.3,81,1.26,35,34,"Y","Y","Y",8.85251190397544,2.18070124970513,-1.15334397511946,"Low","Q1","Below Median","OS","Overall Survival",123,"DAYS",1,0,2023-08-12,124,"BASELINE",0,"DAY 1",1,"N","Y","Low"
"PROTOCOL001-001-00124","PROTOCOL001","001-09",48,"M","WHITE","NOT HISPANIC OR LATINO",80.6,189,"DRUG 50mg","DRUG 100mg",2023-04-11,22.6,2.07,50,1.07,96.3,81,1.26,35,34,"Y","Y","Y",8.85251190397544,2.18070124970513,-1.15334397511946,"Low","Q1","Below Median","PFS","Progression-Free Survival",8,"DAYS",1,0,2023-04-19,9,"BASELINE",0,"DAY 1",1,"Y","N","Low"
"PROTOCOL001-001-00125","PROTOCOL001","001-04",77,"F","BLACK OR AFRICAN AMERICAN","NOT HISPANIC OR LATINO",82,167,"DRUG 150mg","DRUG 50mg",2023-07-07,29.4,1.91,150,1.07,57,101,0.93,29,36,"Y","Y","Y",33.3237872093505,3.50627147258485,0.480119620615387,"High","Q3","Above Median","OS","Overall Survival",148,"DAYS",1,0,2023-12-02,149,"BASELINE",0,"DAY 1",1,"N","Y","High"
"PROTOCOL001-001-00125","PROTOCOL001","001-04",77,"F","BLACK OR AFRICAN AMERICAN","NOT HISPANIC OR LATINO",82,167,"DRUG 150mg","DRUG 50mg",2023-07-07,29.4,1.91,150,1.07,57,101,0.93,29,36,"Y","Y","Y",33.3237872093505,3.50627147258485,0.480119620615387,"High","Q3","Above Median","PFS","Progression-Free Survival",97,"DAYS",1,0,2023-10-12,98,"BASELINE",0,"DAY 1",1,"Y","N","High"
"PROTOCOL001-001-00126","PROTOCOL001","001-10",66,"M","BLACK OR AFRICAN AMERICAN","NOT HISPANIC OR LATINO",76,176,"DRUG 150mg","DRUG 50mg",2023-06-25,24.5,1.92,150,1.05,74.4,69,0.55,32,25,"Y","Y","Y",38.3638730769785,3.6471162114716,0.816546581671218,"High","Q4","Above Median","OS","Overall Survival",259,"DAYS",1,0,2024-03-10,260,"BASELINE",0,"DAY 1",1,"N","Y","High"
"PROTOCOL001-001-00126","PROTOCOL001","001-10",66,"M","BLACK OR AFRICAN AMERICAN","NOT HISPANIC OR LATINO",76,176,"DRUG 150mg","DRUG 50mg",2023-06-25,24.5,1.92,150,1.05,74.4,69,0.55,32,25,"Y","Y","Y",38.3638730769785,3.6471162114716,0.816546581671218,"High","Q4","Above Median","PFS","Progression-Free Survival",42,"DAYS",1,0,2023-08-06,43,"BASELINE",0,"DAY 1",1,"Y","N","High"
"PROTOCOL001-001-00127","PROTOCOL001","001-07",62,"M","BLACK OR AFRICAN AMERICAN","NOT HISPANIC OR LATINO",90.1,164,"DRUG 150mg","DRUG 50mg",2023-02-05,33.5,1.96,150,0.93,105,87,0.57,19,20,"Y","Y","Y",30.8029697208464,3.42761110483947,0.311854438372975,"High","Q3","Above Median","OS","Overall Survival",718,"DAYS",0,1,2025-01-23,719,"BASELINE",0,"DAY 1",1,"N","Y","High"
"PROTOCOL001-001-00127","PROTOCOL001","001-07",62,"M","BLACK OR AFRICAN AMERICAN","NOT HISPANIC OR LATINO",90.1,164,"DRUG 150mg","DRUG 50mg",2023-02-05,33.5,1.96,150,0.93,105,87,0.57,19,20,"Y","Y","Y",30.8029697208464,3.42761110483947,0.311854438372975,"High","Q3","Above Median","PFS","Progression-Free Survival",201,"DAYS",1,0,2023-08-25,202,"BASELINE",0,"DAY 1",1,"Y","N","High"
"PROTOCOL001-001-00128","PROTOCOL001","001-10",59,"M","BLACK OR AFRICAN AMERICAN","NOT HISPANIC OR LATINO",69.4,167,"DRUG 150mg","DRUG 50mg",2023-07-06,24.9,1.78,150,0.81,96.4,66,1.25,29,27,"Y","Y","Y",40.8323404195408,3.70947442476488,0.981317378902628,"High","Q4","Above Median","OS","Overall Survival",622,"DAYS",0,1,2025-03-19,623,"BASELINE",0,"DAY 1",1,"N","Y","High"
"PROTOCOL001-001-00128","PROTOCOL001","001-10",59,"M","BLACK OR AFRICAN AMERICAN","NOT HISPANIC OR LATINO",69.4,167,"DRUG 150mg","DRUG 50mg",2023-07-06,24.9,1.78,150,0.81,96.4,66,1.25,29,27,"Y","Y","Y",40.8323404195408,3.70947442476488,0.981317378902628,"High","Q4","Above Median","PFS","Progression-Free Survival",139,"DAYS",1,0,2023-11-22,140,"BASELINE",0,"DAY 1",1,"Y","N","High"
"PROTOCOL001-001-00129","PROTOCOL001","001-02",50,"F","WHITE","NOT HISPANIC OR LATINO",89,167,"DRUG 150mg","DRUG 100mg",2023-02-07,31.9,1.98,150,1.13,83.7,93,0.71,37,26,"Y","Y","Y",36.0398310017489,3.58462474354349,0.661416206262885,"High","Q4","Above Median","OS","Overall Survival",174,"DAYS",1,0,2023-07-31,175,"BASELINE",0,"DAY 1",1,"N","Y","High"
"PROTOCOL001-001-00129","PROTOCOL001","001-02",50,"F","WHITE","NOT HISPANIC OR LATINO",89,167,"DRUG 150mg","DRUG 100mg",2023-02-07,31.9,1.98,150,1.13,83.7,93,0.71,37,26,"Y","Y","Y",36.0398310017489,3.58462474354349,0.661416206262885,"High","Q4","Above Median","PFS","Progression-Free Survival",168,"DAYS",1,0,2023-07-25,169,"BASELINE",0,"DAY 1",1,"Y","N","High"
"PROTOCOL001-001-00130","PROTOCOL001","001-02",70,"M","WHITE","NOT HISPANIC OR LATINO",87.7,163,"DRUG 50mg","DRUG 150mg",2023-02-12,33,1.93,50,1.15,74.1,68,0.29,36,32,"Y","Y","Y",17.2521568941091,2.84793717300051,-0.592665623163436,"Medium","Q2","Below Median","OS","Overall Survival",136,"DAYS",1,0,2023-06-28,137,"BASELINE",0,"DAY 1",1,"N","Y","Medium"
"PROTOCOL001-001-00130","PROTOCOL001","001-02",70,"M","WHITE","NOT HISPANIC OR LATINO",87.7,163,"DRUG 50mg","DRUG 150mg",2023-02-12,33,1.93,50,1.15,74.1,68,0.29,36,32,"Y","Y","Y",17.2521568941091,2.84793717300051,-0.592665623163436,"Medium","Q2","Below Median","PFS","Progression-Free Survival",88,"DAYS",1,0,2023-05-11,89,"BASELINE",0,"DAY 1",1,"Y","N","Medium"
"PROTOCOL001-001-00131","PROTOCOL001","001-01",67,"F","WHITE","NOT HISPANIC OR LATINO",91.4,158,"DRUG 100mg","DRUG 50mg",2023-04-05,36.6,1.92,100,1.03,76.5,127,0.31,23,24,"Y","Y","Y",28.6230781431604,3.35421332051691,0.166346143837257,"Medium","Q3","Above Median","OS","Overall Survival",337,"DAYS",1,0,2024-03-07,338,"BASELINE",0,"DAY 1",1,"N","Y","Medium"
"PROTOCOL001-001-00131","PROTOCOL001","001-01",67,"F","WHITE","NOT HISPANIC OR LATINO",91.4,158,"DRUG 100mg","DRUG 50mg",2023-04-05,36.6,1.92,100,1.03,76.5,127,0.31,23,24,"Y","Y","Y",28.6230781431604,3.35421332051691,0.166346143837257,"Medium","Q3","Above Median","PFS","Progression-Free Survival",73,"DAYS",1,0,2023-06-17,74,"BASELINE",0,"DAY 1",1,"Y","N","Medium"
"PROTOCOL001-001-00132","PROTOCOL001","001-02",53,"M","WHITE","HISPANIC OR LATINO",84.4,171,"DRUG 50mg","DRUG 150mg",2023-07-04,28.9,1.97,50,1.08,94.4,64,0.96,32,24,"Y","Y","Y",15.0883666738665,2.71392402794645,-0.737099148162313,"Low","Q1","Below Median","OS","Overall Survival",110,"DAYS",1,0,2023-10-22,111,"BASELINE",0,"DAY 1",1,"N","Y","Low"
"PROTOCOL001-001-00132","PROTOCOL001","001-02",53,"M","WHITE","HISPANIC OR LATINO",84.4,171,"DRUG 50mg","DRUG 150mg",2023-07-04,28.9,1.97,50,1.08,94.4,64,0.96,32,24,"Y","Y","Y",15.0883666738665,2.71392402794645,-0.737099148162313,"Low","Q1","Below Median","PFS","Progression-Free Survival",60,"DAYS",1,0,2023-09-02,61,"BASELINE",0,"DAY 1",1,"Y","N","Low"
"PROTOCOL001-001-00133","PROTOCOL001","001-09",49,"M","WHITE","NOT HISPANIC OR LATINO",90.6,168,"DRUG 100mg","DRUG 150mg",2023-05-08,32.1,2,100,0.82,139.6,40,0.59,17,21,"Y","Y","Y",18.5027291962925,2.91791824532758,-0.509189616949642,"Medium","Q2","Below Median","OS","Overall Survival",144,"DAYS",1,0,2023-09-29,145,"BASELINE",0,"DAY 1",1,"N","Y","Medium"
"PROTOCOL001-001-00133","PROTOCOL001","001-09",49,"M","WHITE","NOT HISPANIC OR LATINO",90.6,168,"DRUG 100mg","DRUG 150mg",2023-05-08,32.1,2,100,0.82,139.6,40,0.59,17,21,"Y","Y","Y",18.5027291962925,2.91791824532758,-0.509189616949642,"Medium","Q2","Below Median","PFS","Progression-Free Survival",91,"DAYS",1,0,2023-08-07,92,"BASELINE",0,"DAY 1",1,"Y","N","Medium"
"PROTOCOL001-001-00134","PROTOCOL001","001-05",56,"F","OTHER","HISPANIC OR LATINO",88.1,172,"DRUG 150mg","DRUG 50mg",2023-05-09,29.8,2.01,150,1.27,68.8,53,0.2,35,26,"Y","Y","Y",39.4725093592322,3.67560446402154,0.890548323933278,"High","Q4","Above Median","OS","Overall Survival",143,"DAYS",1,0,2023-09-29,144,"BASELINE",0,"DAY 1",1,"N","Y","High"
"PROTOCOL001-001-00134","PROTOCOL001","001-05",56,"F","OTHER","HISPANIC OR LATINO",88.1,172,"DRUG 150mg","DRUG 50mg",2023-05-09,29.8,2.01,150,1.27,68.8,53,0.2,35,26,"Y","Y","Y",39.4725093592322,3.67560446402154,0.890548323933278,"High","Q4","Above Median","PFS","Progression-Free Survival",12,"DAYS",1,0,2023-05-21,13,"BASELINE",0,"DAY 1",1,"Y","N","High"
"PROTOCOL001-001-00135","PROTOCOL001","001-07",63,"F","BLACK OR AFRICAN AMERICAN","NOT HISPANIC OR LATINO",65.6,161,"DRUG 50mg","DRUG 50mg",2023-07-06,25.3,1.69,50,0.79,75.5,90,0.45,26,21,"Y","Y","Y",10.2728016016905,2.32949978145059,-1.05853929135599,"Low","Q1","Below Median","OS","Overall Survival",294,"DAYS",1,0,2024-04-25,295,"BASELINE",0,"DAY 1",1,"N","Y","Low"
"PROTOCOL001-001-00135","PROTOCOL001","001-07",63,"F","BLACK OR AFRICAN AMERICAN","NOT HISPANIC OR LATINO",65.6,161,"DRUG 50mg","DRUG 50mg",2023-07-06,25.3,1.69,50,0.79,75.5,90,0.45,26,21,"Y","Y","Y",10.2728016016905,2.32949978145059,-1.05853929135599,"Low","Q1","Below Median","PFS","Progression-Free Survival",146,"DAYS",1,0,2023-11-29,147,"BASELINE",0,"DAY 1",1,"Y","N","Low"
"PROTOCOL001-001-00136","PROTOCOL001","001-02",46,"M","WHITE","NOT HISPANIC OR LATINO",81.5,158,"DRUG 100mg","DRUG 50mg",2023-06-17,32.6,1.83,100,1.13,94.2,63,0.6,24,20,"Y","Y","Y",19.080062926392,2.94864396404363,-0.47065244964066,"Medium","Q2","Below Median","OS","Overall Survival",225,"DAYS",1,0,2024-01-28,226,"BASELINE",0,"DAY 1",1,"N","Y","Medium"
"PROTOCOL001-001-00136","PROTOCOL001","001-02",46,"M","WHITE","NOT HISPANIC OR LATINO",81.5,158,"DRUG 100mg","DRUG 50mg",2023-06-17,32.6,1.83,100,1.13,94.2,63,0.6,24,20,"Y","Y","Y",19.080062926392,2.94864396404363,-0.47065244964066,"Medium","Q2","Below Median","PFS","Progression-Free Survival",126,"DAYS",1,0,2023-10-21,127,"BASELINE",0,"DAY 1",1,"Y","N","Medium"
"PROTOCOL001-001-00137","PROTOCOL001","001-05",60,"M","WHITE","NOT HISPANIC OR LATINO",78.6,169,"DRUG 100mg","DRUG 150mg",2023-05-05,27.5,1.89,100,0.87,100.4,54,0.65,11,30,"Y","Y","Y",28.8698325807115,3.36279719458326,0.182817062732816,"Medium","Q3","Above Median","OS","Overall Survival",493,"DAYS",1,0,2024-09-09,494,"BASELINE",0,"DAY 1",1,"N","Y","Medium"
"PROTOCOL001-001-00137","PROTOCOL001","001-05",60,"M","WHITE","NOT HISPANIC OR LATINO",78.6,169,"DRUG 100mg","DRUG 150mg",2023-05-05,27.5,1.89,100,0.87,100.4,54,0.65,11,30,"Y","Y","Y",28.8698325807115,3.36279719458326,0.182817062732816,"Medium","Q3","Above Median","PFS","Progression-Free Survival",84,"DAYS",1,0,2023-07-28,85,"BASELINE",0,"DAY 1",1,"Y","N","Medium"
"PROTOCOL001-001-00138","PROTOCOL001","001-01",32,"M","WHITE","NOT HISPANIC OR LATINO",56.2,185,"DRUG 100mg","DRUG 150mg",2023-05-10,16.4,1.75,100,1.39,60.6,70,1.03,38,24,"Y","Y","Y",21.8793454411674,3.08554306125471,-0.28379965897068,"Medium","Q2","Below Median","OS","Overall Survival",474,"DAYS",1,0,2024-08-26,475,"BASELINE",0,"DAY 1",1,"N","Y","Medium"
"PROTOCOL001-001-00138","PROTOCOL001","001-01",32,"M","WHITE","NOT HISPANIC OR LATINO",56.2,185,"DRUG 100mg","DRUG 150mg",2023-05-10,16.4,1.75,100,1.39,60.6,70,1.03,38,24,"Y","Y","Y",21.8793454411674,3.08554306125471,-0.28379965897068,"Medium","Q2","Below Median","PFS","Progression-Free Survival",139,"DAYS",1,0,2023-09-26,140,"BASELINE",0,"DAY 1",1,"Y","N","Medium"
"PROTOCOL001-001-00139","PROTOCOL001","001-07",51,"F","WHITE","NOT HISPANIC OR LATINO",78.4,156,"DRUG 50mg","DRUG 150mg",2023-01-18,32.2,1.78,50,0.87,94.7,96,0.9,31,33,"Y","Y","Y",21.3900350691903,3.06292516260631,-0.316461245654092,"Medium","Q2","Below Median","OS","Overall Survival",350,"DAYS",1,0,2024-01-03,351,"BASELINE",0,"DAY 1",1,"N","Y","Medium"
"PROTOCOL001-001-00139","PROTOCOL001","001-07",51,"F","WHITE","NOT HISPANIC OR LATINO",78.4,156,"DRUG 50mg","DRUG 150mg",2023-01-18,32.2,1.78,50,0.87,94.7,96,0.9,31,33,"Y","Y","Y",21.3900350691903,3.06292516260631,-0.316461245654092,"Medium","Q2","Below Median","PFS","Progression-Free Survival",157,"DAYS",1,0,2023-06-24,158,"BASELINE",0,"DAY 1",1,"Y","N","Medium"
"PROTOCOL001-001-00140","PROTOCOL001","001-10",49,"F","WHITE","NOT HISPANIC OR LATINO",82.6,165,"DRUG 50mg","DRUG 150mg",2023-06-14,30.3,1.9,50,0.78,113.8,122,0.7,24,26,"Y","Y","Y",8.65773205631018,2.15845280101378,-1.16634557746235,"Low","Q1","Below Median","OS","Overall Survival",448,"DAYS",1,0,2024-09-04,449,"BASELINE",0,"DAY 1",1,"N","Y","Low"
"PROTOCOL001-001-00140","PROTOCOL001","001-10",49,"F","WHITE","NOT HISPANIC OR LATINO",82.6,165,"DRUG 50mg","DRUG 150mg",2023-06-14,30.3,1.9,50,0.78,113.8,122,0.7,24,26,"Y","Y","Y",8.65773205631018,2.15845280101378,-1.16634557746235,"Low","Q1","Below Median","PFS","Progression-Free Survival",332,"DAYS",1,0,2024-05-11,333,"BASELINE",0,"DAY 1",1,"Y","N","Low"
"PROTOCOL001-001-00141","PROTOCOL001","001-10",64,"F","WHITE","NOT HISPANIC OR LATINO",106.8,172,"DRUG 150mg","DRUG 50mg",2023-04-09,36.1,2.18,150,0.87,110.1,81,1.07,19,24,"Y","Y","Y",26.8298172969765,3.2895138547601,0.0466455449373426,"Medium","Q3","Above Median","OS","Overall Survival",178,"DAYS",1,0,2023-10-04,179,"BASELINE",0,"DAY 1",1,"N","Y","Medium"
"PROTOCOL001-001-00141","PROTOCOL001","001-10",64,"F","WHITE","NOT HISPANIC OR LATINO",106.8,172,"DRUG 150mg","DRUG 50mg",2023-04-09,36.1,2.18,150,0.87,110.1,81,1.07,19,24,"Y","Y","Y",26.8298172969765,3.2895138547601,0.0466455449373426,"Medium","Q3","Above Median","PFS","Progression-Free Survival",143,"DAYS",1,0,2023-08-30,144,"BASELINE",0,"DAY 1",1,"Y","N","Medium"
"PROTOCOL001-001-00142","PROTOCOL001","001-05",64,"F","WHITE","HISPANIC OR LATINO",62.7,187,"DRUG 150mg","DRUG 50mg",2023-06-13,17.9,1.85,150,0.82,68.6,103,0.85,29,19,"Y","Y","Y",48.3457441700728,3.87837819672371,1.48283891194083,"High","Q4","Above Median","OS","Overall Survival",171,"DAYS",1,0,2023-12-01,172,"BASELINE",0,"DAY 1",1,"N","Y","High"
"PROTOCOL001-001-00142","PROTOCOL001","001-05",64,"F","WHITE","HISPANIC OR LATINO",62.7,187,"DRUG 150mg","DRUG 50mg",2023-06-13,17.9,1.85,150,0.82,68.6,103,0.85,29,19,"Y","Y","Y",48.3457441700728,3.87837819672371,1.48283891194083,"High","Q4","Above Median","PFS","Progression-Free Survival",157,"DAYS",1,0,2023-11-17,158,"BASELINE",0,"DAY 1",1,"Y","N","High"
"PROTOCOL001-001-00143","PROTOCOL001","001-03",58,"M","WHITE","NOT HISPANIC OR LATINO",71.3,171,"DRUG 150mg","DRUG 100mg",2023-07-07,24.4,1.83,150,1.23,66,101,1.16,47,28,"Y","Y","Y",33.3700157989828,3.50765776621186,0.483205390249546,"High","Q3","Above Median","OS","Overall Survival",372,"DAYS",1,0,2024-07-13,373,"BASELINE",0,"DAY 1",1,"N","Y","High"
"PROTOCOL001-001-00143","PROTOCOL001","001-03",58,"M","WHITE","NOT HISPANIC OR LATINO",71.3,171,"DRUG 150mg","DRUG 100mg",2023-07-07,24.4,1.83,150,1.23,66,101,1.16,47,28,"Y","Y","Y",33.3700157989828,3.50765776621186,0.483205390249546,"High","Q3","Above Median","PFS","Progression-Free Survival",144,"DAYS",1,0,2023-11-28,145,"BASELINE",0,"DAY 1",1,"Y","N","High"
"PROTOCOL001-001-00144","PROTOCOL001","001-08",53,"M","OTHER","NOT HISPANIC OR LATINO",81.9,161,"DRUG 100mg","DRUG 50mg",2023-04-11,31.6,1.86,100,0.59,150,74,1.09,45,18,"Y","Y","Y",13.4585153878163,2.5996120200513,-0.845892119063994,"Low","Q1","Below Median","OS","Overall Survival",412,"DAYS",1,0,2024-05-27,413,"BASELINE",0,"DAY 1",1,"N","Y","Low"
"PROTOCOL001-001-00144","PROTOCOL001","001-08",53,"M","OTHER","NOT HISPANIC OR LATINO",81.9,161,"DRUG 100mg","DRUG 50mg",2023-04-11,31.6,1.86,100,0.59,150,74,1.09,45,18,"Y","Y","Y",13.4585153878163,2.5996120200513,-0.845892119063994,"Low","Q1","Below Median","PFS","Progression-Free Survival",367,"DAYS",1,0,2024-04-12,368,"BASELINE",0,"DAY 1",1,"Y","N","Low"
"PROTOCOL001-001-00145","PROTOCOL001","001-06",72,"M","BLACK OR AFRICAN AMERICAN","NOT HISPANIC OR LATINO",85,162,"DRUG 150mg","DRUG 50mg",2023-05-17,32.4,1.9,150,1.17,68.6,74,0.44,34,36,"Y","Y","N",66.581198534608,4.19842223340582,2.70005993881595,"High","Q4","Above Median","OS","Overall Survival",210,"DAYS",1,0,2023-12-13,211,"BASELINE",0,"DAY 1",1,"N","Y","High"
"PROTOCOL001-001-00145","PROTOCOL001","001-06",72,"M","BLACK OR AFRICAN AMERICAN","NOT HISPANIC OR LATINO",85,162,"DRUG 150mg","DRUG 50mg",2023-05-17,32.4,1.9,150,1.17,68.6,74,0.44,34,36,"Y","Y","N",66.581198534608,4.19842223340582,2.70005993881595,"High","Q4","Above Median","PFS","Progression-Free Survival",62,"DAYS",1,0,2023-07-18,63,"BASELINE",0,"DAY 1",1,"Y","N","High"
"PROTOCOL001-001-00146","PROTOCOL001","001-02",57,"F","WHITE","NOT HISPANIC OR LATINO",82.3,166,"DRUG 100mg","DRUG 150mg",2023-04-08,29.9,1.91,100,1.8,44.8,90,0.96,23,34,"Y","Y","Y",33.9332262930917,3.52439466101578,0.520799828111176,"High","Q4","Above Median","OS","Overall Survival",350,"DAYS",1,0,2024-03-23,351,"BASELINE",0,"DAY 1",1,"N","Y","High"
"PROTOCOL001-001-00146","PROTOCOL001","001-02",57,"F","WHITE","NOT HISPANIC OR LATINO",82.3,166,"DRUG 100mg","DRUG 150mg",2023-04-08,29.9,1.91,100,1.8,44.8,90,0.96,23,34,"Y","Y","Y",33.9332262930917,3.52439466101578,0.520799828111176,"High","Q4","Above Median","PFS","Progression-Free Survival",174,"DAYS",1,0,2023-09-29,175,"BASELINE",0,"DAY 1",1,"Y","N","High"
"PROTOCOL001-001-00147","PROTOCOL001","001-01",58,"F","WHITE","HISPANIC OR LATINO",91.1,151,"DRUG 150mg","DRUG 50mg",2023-05-07,40,1.86,150,1,88.2,105,0.68,29,25,"Y","Y","Y",55.2209187733268,4.01134184477951,1.94175849371962,"High","Q4","Above Median","OS","Overall Survival",256,"DAYS",1,0,2024-01-18,257,"BASELINE",0,"DAY 1",1,"N","Y","High"
"PROTOCOL001-001-00147","PROTOCOL001","001-01",58,"F","WHITE","HISPANIC OR LATINO",91.1,151,"DRUG 150mg","DRUG 50mg",2023-05-07,40,1.86,150,1,88.2,105,0.68,29,25,"Y","Y","Y",55.2209187733268,4.01134184477951,1.94175849371962,"High","Q4","Above Median","PFS","Progression-Free Survival",134,"DAYS",1,0,2023-09-18,135,"BASELINE",0,"DAY 1",1,"Y","N","High"
"PROTOCOL001-001-00148","PROTOCOL001","001-05",72,"F","WHITE","NOT HISPANIC OR LATINO",92.2,169,"DRUG 50mg","DRUG 50mg",2023-02-13,32.3,2.03,50,1.01,73.3,100,0.88,29,17,"Y","Y","Y",15.9622089190132,2.77022398589173,-0.678769965148756,"Low","Q2","Below Median","OS","Overall Survival",461,"DAYS",1,0,2024-05-19,462,"BASELINE",0,"DAY 1",1,"N","Y","Low"
"PROTOCOL001-001-00148","PROTOCOL001","001-05",72,"F","WHITE","NOT HISPANIC OR LATINO",92.2,169,"DRUG 50mg","DRUG 50mg",2023-02-13,32.3,2.03,50,1.01,73.3,100,0.88,29,17,"Y","Y","Y",15.9622089190132,2.77022398589173,-0.678769965148756,"Low","Q2","Below Median","PFS","Progression-Free Survival",162,"DAYS",1,0,2023-07-25,163,"BASELINE",0,"DAY 1",1,"Y","N","Low"
"PROTOCOL001-001-00149","PROTOCOL001","001-01",62,"M","WHITE","HISPANIC OR LATINO",50.7,160,"DRUG 150mg","DRUG 50mg",2023-06-05,19.8,1.51,150,0.5,144.5,100,0.6,18,34,"Y","Y","Y",23.2432312735219,3.14601396162681,-0.192759946978217,"Medium","Q2","Below Median","OS","Overall Survival",402,"DAYS",1,0,2024-07-11,403,"BASELINE",0,"DAY 1",1,"N","Y","Medium"
"PROTOCOL001-001-00149","PROTOCOL001","001-01",62,"M","WHITE","HISPANIC OR LATINO",50.7,160,"DRUG 150mg","DRUG 50mg",2023-06-05,19.8,1.51,150,0.5,144.5,100,0.6,18,34,"Y","Y","Y",23.2432312735219,3.14601396162681,-0.192759946978217,"Medium","Q2","Below Median","PFS","Progression-Free Survival",271,"DAYS",1,0,2024-03-02,272,"BASELINE",0,"DAY 1",1,"Y","N","Medium"
"PROTOCOL001-001-00150","PROTOCOL001","001-06",54,"M","WHITE","NOT HISPANIC OR LATINO",91.9,177,"DRUG 150mg","DRUG 50mg",2023-06-24,29.3,2.09,150,1.18,93,65,0.47,40,27,"Y","Y","Y",40.4132304608197,3.69915721800901,0.953341686927535,"High","Q4","Above Median","OS","Overall Survival",122,"DAYS",1,0,2023-10-24,123,"BASELINE",0,"DAY 1",1,"N","Y","High"
"PROTOCOL001-001-00150","PROTOCOL001","001-06",54,"M","WHITE","NOT HISPANIC OR LATINO",91.9,177,"DRUG 150mg","DRUG 50mg",2023-06-24,29.3,2.09,150,1.18,93,65,0.47,40,27,"Y","Y","Y",40.4132304608197,3.69915721800901,0.953341686927535,"High","Q4","Above Median","PFS","Progression-Free Survival",64,"DAYS",1,0,2023-08-27,65,"BASELINE",0,"DAY 1",1,"Y","N","High"
"PROTOCOL001-001-00151","PROTOCOL001","001-10",78,"F","OTHER","NOT HISPANIC OR LATINO",83.9,166,"DRUG 50mg","DRUG 100mg",2023-02-28,30.4,1.92,50,1.44,42.6,86,0.86,34,13,"Y","Y","N",18.5251875977859,2.91913129786696,-0.507690513171841,"Medium","Q2","Below Median","OS","Overall Survival",298,"DAYS",1,0,2023-12-23,299,"BASELINE",0,"DAY 1",1,"N","Y","Medium"
"PROTOCOL001-001-00151","PROTOCOL001","001-10",78,"F","OTHER","NOT HISPANIC OR LATINO",83.9,166,"DRUG 50mg","DRUG 100mg",2023-02-28,30.4,1.92,50,1.44,42.6,86,0.86,34,13,"Y","Y","N",18.5251875977859,2.91913129786696,-0.507690513171841,"Medium","Q2","Below Median","PFS","Progression-Free Survival",200,"DAYS",1,0,2023-09-16,201,"BASELINE",0,"DAY 1",1,"Y","N","Medium"
"PROTOCOL001-001-00152","PROTOCOL001","001-06",47,"F","OTHER","NOT HISPANIC OR LATINO",63.9,167,"DRUG 150mg","DRUG 50mg",2023-05-23,22.9,1.72,150,0.74,94.8,50,0.75,25,16,"Y","Y","Y",24.6153069515741,3.20336848323495,-0.101173560787748,"Medium","Q3","Above Median","OS","Overall Survival",296,"DAYS",1,0,2024-03-14,297,"BASELINE",0,"DAY 1",1,"N","Y","Medium"
"PROTOCOL001-001-00152","PROTOCOL001","001-06",47,"F","OTHER","NOT HISPANIC OR LATINO",63.9,167,"DRUG 150mg","DRUG 50mg",2023-05-23,22.9,1.72,150,0.74,94.8,50,0.75,25,16,"Y","Y","Y",24.6153069515741,3.20336848323495,-0.101173560787748,"Medium","Q3","Above Median","PFS","Progression-Free Survival",251,"DAYS",1,0,2024-01-29,252,"BASELINE",0,"DAY 1",1,"Y","N","Medium"
"PROTOCOL001-001-00153","PROTOCOL001","001-08",57,"F","BLACK OR AFRICAN AMERICAN","NOT HISPANIC OR LATINO",78.8,164,"DRUG 50mg","DRUG 150mg",2023-06-25,29.3,1.85,50,1.53,50.5,54,0.6,25,27,"Y","Y","Y",17.6433475750631,2.87035880440322,-0.566553549789441,"Medium","Q2","Below Median","OS","Overall Survival",395,"DAYS",1,0,2024-07-24,396,"BASELINE",0,"DAY 1",1,"N","Y","Medium"
"PROTOCOL001-001-00153","PROTOCOL001","001-08",57,"F","BLACK OR AFRICAN AMERICAN","NOT HISPANIC OR LATINO",78.8,164,"DRUG 50mg","DRUG 150mg",2023-06-25,29.3,1.85,50,1.53,50.5,54,0.6,25,27,"Y","Y","Y",17.6433475750631,2.87035880440322,-0.566553549789441,"Medium","Q2","Below Median","PFS","Progression-Free Survival",302,"DAYS",1,0,2024-04-22,303,"BASELINE",0,"DAY 1",1,"Y","N","Medium"
"PROTOCOL001-001-00154","PROTOCOL001","001-07",74,"M","WHITE","NOT HISPANIC OR LATINO",69.9,165,"DRUG 50mg","DRUG 150mg",2023-04-16,25.7,1.77,50,1.24,51.7,87,0.43,22,19,"Y","Y","Y",21.7624325590424,3.08018520613683,-0.291603622370241,"Medium","Q2","Below Median","OS","Overall Survival",400,"DAYS",1,0,2024-05-20,401,"BASELINE",0,"DAY 1",1,"N","Y","Medium"
"PROTOCOL001-001-00154","PROTOCOL001","001-07",74,"M","WHITE","NOT HISPANIC OR LATINO",69.9,165,"DRUG 50mg","DRUG 150mg",2023-04-16,25.7,1.77,50,1.24,51.7,87,0.43,22,19,"Y","Y","Y",21.7624325590424,3.08018520613683,-0.291603622370241,"Medium","Q2","Below Median","PFS","Progression-Free Survival",117,"DAYS",1,0,2023-08-11,118,"BASELINE",0,"DAY 1",1,"Y","N","Medium"
"PROTOCOL001-001-00155","PROTOCOL001","001-07",79,"F","WHITE","NOT HISPANIC OR LATINO",89.2,156,"DRUG 100mg","DRUG 50mg",2023-02-26,36.7,1.88,100,0.85,75.6,51,0.95,37,23,"Y","Y","Y",16.8285945943969,2.82307949873829,-0.620938509985708,"Low","Q2","Below Median","OS","Overall Survival",212,"DAYS",1,0,2023-09-26,213,"BASELINE",0,"DAY 1",1,"N","Y","Low"
"PROTOCOL001-001-00155","PROTOCOL001","001-07",79,"F","WHITE","NOT HISPANIC OR LATINO",89.2,156,"DRUG 100mg","DRUG 50mg",2023-02-26,36.7,1.88,100,0.85,75.6,51,0.95,37,23,"Y","Y","Y",16.8285945943969,2.82307949873829,-0.620938509985708,"Low","Q2","Below Median","PFS","Progression-Free Survival",124,"DAYS",1,0,2023-06-30,125,"BASELINE",0,"DAY 1",1,"Y","N","Low"
"PROTOCOL001-001-00156","PROTOCOL001","001-07",84,"M","WHITE","NOT HISPANIC OR LATINO",65.1,180,"DRUG 100mg","DRUG 100mg",2023-04-14,20.1,1.83,100,0.72,70.3,44,1.15,24,22,"Y","Y","Y",28.0373871827979,3.33353887604146,0.127251129369705,"Medium","Q3","Above Median","OS","Overall Survival",384,"DAYS",1,0,2024-05-02,385,"BASELINE",0,"DAY 1",1,"N","Y","Medium"
"PROTOCOL001-001-00156","PROTOCOL001","001-07",84,"M","WHITE","NOT HISPANIC OR LATINO",65.1,180,"DRUG 100mg","DRUG 100mg",2023-04-14,20.1,1.83,100,0.72,70.3,44,1.15,24,22,"Y","Y","Y",28.0373871827979,3.33353887604146,0.127251129369705,"Medium","Q3","Above Median","PFS","Progression-Free Survival",175,"DAYS",1,0,2023-10-06,176,"BASELINE",0,"DAY 1",1,"Y","N","Medium"
"PROTOCOL001-001-00157","PROTOCOL001","001-08",54,"F","ASIAN","NOT HISPANIC OR LATINO",85.2,175,"DRUG 50mg","DRUG 150mg",2023-04-20,27.8,2.01,50,0.54,150,72,0.44,39,33,"Y","Y","N",4.78718454954014,1.56594246190041,-1.42470556765389,"Low","Q1","Below Median","OS","Overall Survival",149,"DAYS",1,0,2023-09-16,150,"BASELINE",0,"DAY 1",1,"N","Y","Low"
"PROTOCOL001-001-00157","PROTOCOL001","001-08",54,"F","ASIAN","NOT HISPANIC OR LATINO",85.2,175,"DRUG 50mg","DRUG 150mg",2023-04-20,27.8,2.01,50,0.54,150,72,0.44,39,33,"Y","Y","N",4.78718454954014,1.56594246190041,-1.42470556765389,"Low","Q1","Below Median","PFS","Progression-Free Survival",79,"DAYS",1,0,2023-07-08,80,"BASELINE",0,"DAY 1",1,"Y","N","Low"
"PROTOCOL001-001-00158","PROTOCOL001","001-10",51,"M","WHITE","NOT HISPANIC OR LATINO",76.2,173,"DRUG 100mg","DRUG 150mg",2023-02-27,25.5,1.9,100,0.5,150,107,0.64,17,29,"Y","Y","Y",13.0688326759874,2.57023021041008,-0.871903535131054,"Low","Q1","Below Median","OS","Overall Survival",370,"DAYS",0,1,2024-03-03,371,"BASELINE",0,"DAY 1",1,"N","Y","Low"
"PROTOCOL001-001-00158","PROTOCOL001","001-10",51,"M","WHITE","NOT HISPANIC OR LATINO",76.2,173,"DRUG 100mg","DRUG 150mg",2023-02-27,25.5,1.9,100,0.5,150,107,0.64,17,29,"Y","Y","Y",13.0688326759874,2.57023021041008,-0.871903535131054,"Low","Q1","Below Median","PFS","Progression-Free Survival",116,"DAYS",1,0,2023-06-23,117,"BASELINE",0,"DAY 1",1,"Y","N","Low"
"PROTOCOL001-001-00159","PROTOCOL001","001-10",41,"F","BLACK OR AFRICAN AMERICAN","NOT HISPANIC OR LATINO",83,157,"DRUG 100mg","DRUG 50mg",2023-04-23,33.7,1.84,100,0.76,127.6,115,0.26,40,25,"Y","Y","Y",22.2991063815057,3.10454660508493,-0.255780513813851,"Medium","Q2","Below Median","OS","Overall Survival",218,"DAYS",1,0,2023-11-27,219,"BASELINE",0,"DAY 1",1,"N","Y","Medium"
"PROTOCOL001-001-00159","PROTOCOL001","001-10",41,"F","BLACK OR AFRICAN AMERICAN","NOT HISPANIC OR LATINO",83,157,"DRUG 100mg","DRUG 50mg",2023-04-23,33.7,1.84,100,0.76,127.6,115,0.26,40,25,"Y","Y","Y",22.2991063815057,3.10454660508493,-0.255780513813851,"Medium","Q2","Below Median","PFS","Progression-Free Survival",172,"DAYS",1,0,2023-10-12,173,"BASELINE",0,"DAY 1",1,"Y","N","Medium"
"PROTOCOL001-001-00160","PROTOCOL001","001-02",85,"M","WHITE","NOT HISPANIC OR LATINO",88.1,180,"DRUG 50mg","DRUG 50mg",2023-01-20,27.2,2.08,50,1.03,65.3,66,0.6,26,19,"Y","Y","Y",9.81480476702032,2.28389193624382,-1.08911069178608,"Low","Q1","Below Median","OS","Overall Survival",550,"DAYS",1,0,2024-07-23,551,"BASELINE",0,"DAY 1",1,"N","Y","Low"
"PROTOCOL001-001-00160","PROTOCOL001","001-02",85,"M","WHITE","NOT HISPANIC OR LATINO",88.1,180,"DRUG 50mg","DRUG 50mg",2023-01-20,27.2,2.08,50,1.03,65.3,66,0.6,26,19,"Y","Y","Y",9.81480476702032,2.28389193624382,-1.08911069178608,"Low","Q1","Below Median","PFS","Progression-Free Survival",463,"DAYS",1,0,2024-04-27,464,"BASELINE",0,"DAY 1",1,"Y","N","Low"
"PROTOCOL001-001-00161","PROTOCOL001","001-01",49,"F","WHITE","NOT HISPANIC OR LATINO",77.1,183,"DRUG 100mg","DRUG 50mg",2023-01-19,23,1.99,100,1.13,73.3,79,0.53,17,27,"Y","Y","Y",29.3828148363601,3.38040997406523,0.217058753425408,"High","Q3","Above Median","OS","Overall Survival",621,"DAYS",1,0,2024-10-01,622,"BASELINE",0,"DAY 1",1,"N","Y","High"
"PROTOCOL001-001-00161","PROTOCOL001","001-01",49,"F","WHITE","NOT HISPANIC OR LATINO",77.1,183,"DRUG 100mg","DRUG 50mg",2023-01-19,23,1.99,100,1.13,73.3,79,0.53,17,27,"Y","Y","Y",29.3828148363601,3.38040997406523,0.217058753425408,"High","Q3","Above Median","PFS","Progression-Free Survival",314,"DAYS",1,0,2023-11-29,315,"BASELINE",0,"DAY 1",1,"Y","N","High"
"PROTOCOL001-001-00162","PROTOCOL001","001-04",63,"M","WHITE","NOT HISPANIC OR LATINO",89.1,170,"DRUG 50mg","DRUG 50mg",2023-07-09,30.8,2.01,50,1.13,84.3,82,0.23,11,33,"Y","Y","Y",12.1536644189228,2.49763072258019,-0.932991239520485,"Low","Q1","Below Median","OS","Overall Survival",187,"DAYS",1,0,2024-01-12,188,"BASELINE",0,"DAY 1",1,"N","Y","Low"
"PROTOCOL001-001-00162","PROTOCOL001","001-04",63,"M","WHITE","NOT HISPANIC OR LATINO",89.1,170,"DRUG 50mg","DRUG 50mg",2023-07-09,30.8,2.01,50,1.13,84.3,82,0.23,11,33,"Y","Y","Y",12.1536644189228,2.49763072258019,-0.932991239520485,"Low","Q1","Below Median","PFS","Progression-Free Survival",91,"DAYS",1,0,2023-10-08,92,"BASELINE",0,"DAY 1",1,"Y","N","Low"
"PROTOCOL001-001-00163","PROTOCOL001","001-08",65,"F","OTHER","HISPANIC OR LATINO",65,153,"DRUG 100mg","DRUG 150mg",2023-03-30,27.8,1.62,100,0.93,61.9,30,0.85,26,18,"Y","Y","Y",62.9197285783081,4.14185976442216,2.45565592611707,"High","Q4","Above Median","OS","Overall Survival",69,"DAYS",1,0,2023-06-07,70,"BASELINE",0,"DAY 1",1,"N","Y","High"
"PROTOCOL001-001-00163","PROTOCOL001","001-08",65,"F","OTHER","HISPANIC OR LATINO",65,153,"DRUG 100mg","DRUG 150mg",2023-03-30,27.8,1.62,100,0.93,61.9,30,0.85,26,18,"Y","Y","Y",62.9197285783081,4.14185976442216,2.45565592611707,"High","Q4","Above Median","PFS","Progression-Free Survival",49,"DAYS",1,0,2023-05-18,50,"BASELINE",0,"DAY 1",1,"Y","N","High"
"PROTOCOL001-001-00164","PROTOCOL001","001-10",70,"M","BLACK OR AFRICAN AMERICAN","NOT HISPANIC OR LATINO",62.4,161,"DRUG 100mg","DRUG 150mg",2023-02-10,24.1,1.66,100,1.25,48.5,114,0.91,19,31,"Y","Y","Y",32.5532679276028,3.4828777607765,0.428687270611538,"High","Q3","Above Median","OS","Overall Survival",299,"DAYS",1,0,2023-12-06,300,"BASELINE",0,"DAY 1",1,"N","Y","High"
"PROTOCOL001-001-00164","PROTOCOL001","001-10",70,"M","BLACK OR AFRICAN AMERICAN","NOT HISPANIC OR LATINO",62.4,161,"DRUG 100mg","DRUG 150mg",2023-02-10,24.1,1.66,100,1.25,48.5,114,0.91,19,31,"Y","Y","Y",32.5532679276028,3.4828777607765,0.428687270611538,"High","Q3","Above Median","PFS","Progression-Free Survival",187,"DAYS",1,0,2023-08-16,188,"BASELINE",0,"DAY 1",1,"Y","N","High"
"PROTOCOL001-001-00165","PROTOCOL001","001-02",64,"F","WHITE","NOT HISPANIC OR LATINO",110.5,165,"DRUG 50mg","DRUG 100mg",2023-03-31,40.6,2.15,50,1.55,64,55,0.75,25,18,"Y","Y","Y",16.3033743716643,2.79137210305425,-0.655997087966275,"Low","Q2","Below Median","OS","Overall Survival",225,"DAYS",1,0,2023-11-11,226,"BASELINE",0,"DAY 1",1,"N","Y","Low"
"PROTOCOL001-001-00165","PROTOCOL001","001-02",64,"F","WHITE","NOT HISPANIC OR LATINO",110.5,165,"DRUG 50mg","DRUG 100mg",2023-03-31,40.6,2.15,50,1.55,64,55,0.75,25,18,"Y","Y","Y",16.3033743716643,2.79137210305425,-0.655997087966275,"Low","Q2","Below Median","PFS","Progression-Free Survival",178,"DAYS",1,0,2023-09-25,179,"BASELINE",0,"DAY 1",1,"Y","N","Low"
"PROTOCOL001-001-00166","PROTOCOL001","001-04",32,"M","WHITE","NOT HISPANIC OR LATINO",74.5,176,"DRUG 50mg","DRUG 150mg",2023-06-04,24.1,1.91,50,0.91,122.8,108,0.54,35,29,"Y","Y","Y",10.3514543250199,2.33712702433482,-1.05328920288857,"Low","Q1","Below Median","OS","Overall Survival",257,"DAYS",1,0,2024-02-16,258,"BASELINE",0,"DAY 1",1,"N","Y","Low"
"PROTOCOL001-001-00166","PROTOCOL001","001-04",32,"M","WHITE","NOT HISPANIC OR LATINO",74.5,176,"DRUG 50mg","DRUG 150mg",2023-06-04,24.1,1.91,50,0.91,122.8,108,0.54,35,29,"Y","Y","Y",10.3514543250199,2.33712702433482,-1.05328920288857,"Low","Q1","Below Median","PFS","Progression-Free Survival",212,"DAYS",1,0,2024-01-02,213,"BASELINE",0,"DAY 1",1,"Y","N","Low"
"PROTOCOL001-001-00167","PROTOCOL001","001-03",69,"M","WHITE","HISPANIC OR LATINO",84.8,172,"DRUG 50mg","DRUG 150mg",2023-06-22,28.7,1.98,50,0.94,89,69,0.2,31,18,"Y","Y","Y",16.9705460825122,2.83147925801609,-0.611463213528815,"Low","Q2","Below Median","OS","Overall Survival",412,"DAYS",1,0,2024-08-07,413,"BASELINE",0,"DAY 1",1,"N","Y","Low"
"PROTOCOL001-001-00167","PROTOCOL001","001-03",69,"M","WHITE","HISPANIC OR LATINO",84.8,172,"DRUG 50mg","DRUG 150mg",2023-06-22,28.7,1.98,50,0.94,89,69,0.2,31,18,"Y","Y","Y",16.9705460825122,2.83147925801609,-0.611463213528815,"Low","Q2","Below Median","PFS","Progression-Free Survival",60,"DAYS",1,0,2023-08-21,61,"BASELINE",0,"DAY 1",1,"Y","N","Low"
"PROTOCOL001-001-00168","PROTOCOL001","001-03",64,"F","WHITE","NOT HISPANIC OR LATINO",64.5,174,"DRUG 150mg","DRUG 50mg",2023-03-11,21.3,1.78,150,1.03,56.2,51,0.35,25,24,"Y","Y","N",28.8431354344369,3.36187202476105,0.181035021706945,"Medium","Q3","Above Median","OS","Overall Survival",292,"DAYS",1,0,2023-12-28,293,"BASELINE",0,"DAY 1",1,"N","Y","Medium"
"PROTOCOL001-001-00168","PROTOCOL001","001-03",64,"F","WHITE","NOT HISPANIC OR LATINO",64.5,174,"DRUG 150mg","DRUG 50mg",2023-03-11,21.3,1.78,150,1.03,56.2,51,0.35,25,24,"Y","Y","N",28.8431354344369,3.36187202476105,0.181035021706945,"Medium","Q3","Above Median","PFS","Progression-Free Survival",201,"DAYS",1,0,2023-09-28,202,"BASELINE",0,"DAY 1",1,"Y","N","Medium"
"PROTOCOL001-001-00169","PROTOCOL001","001-08",63,"F","OTHER","NOT HISPANIC OR LATINO",68.4,169,"DRUG 50mg","DRUG 150mg",2023-02-18,23.9,1.78,50,1.04,59.8,95,1.18,24,10,"Y","Y","Y",23.6525537883844,3.16347109170378,-0.16543756926807,"Medium","Q3","Above Median","OS","Overall Survival",250,"DAYS",1,0,2023-10-26,251,"BASELINE",0,"DAY 1",1,"N","Y","Medium"
"PROTOCOL001-001-00169","PROTOCOL001","001-08",63,"F","OTHER","NOT HISPANIC OR LATINO",68.4,169,"DRUG 50mg","DRUG 150mg",2023-02-18,23.9,1.78,50,1.04,59.8,95,1.18,24,10,"Y","Y","Y",23.6525537883844,3.16347109170378,-0.16543756926807,"Medium","Q3","Above Median","PFS","Progression-Free Survival",83,"DAYS",1,0,2023-05-12,84,"BASELINE",0,"DAY 1",1,"Y","N","Medium"
"PROTOCOL001-001-00170","PROTOCOL001","001-09",49,"M","WHITE","HISPANIC OR LATINO",64.2,178,"DRUG 100mg","DRUG 50mg",2023-02-03,20.3,1.8,100,1.02,79.6,100,1.2,35,21,"Y","Y","Y",24.1873502494688,3.1858297795344,-0.129739775041653,"Medium","Q3","Above Median","OS","Overall Survival",267,"DAYS",1,0,2023-10-28,268,"BASELINE",0,"DAY 1",1,"N","Y","Medium"
"PROTOCOL001-001-00170","PROTOCOL001","001-09",49,"M","WHITE","HISPANIC OR LATINO",64.2,178,"DRUG 100mg","DRUG 50mg",2023-02-03,20.3,1.8,100,1.02,79.6,100,1.2,35,21,"Y","Y","Y",24.1873502494688,3.1858297795344,-0.129739775041653,"Medium","Q3","Above Median","PFS","Progression-Free Survival",57,"DAYS",1,0,2023-04-01,58,"BASELINE",0,"DAY 1",1,"Y","N","Medium"
"PROTOCOL001-001-00171","PROTOCOL001","001-09",70,"F","ASIAN","NOT HISPANIC OR LATINO",70.9,153,"DRUG 100mg","DRUG 100mg",2023-04-16,30.3,1.69,100,0.5,150,96,0.85,21,21,"Y","Y","N",9.27099788269872,2.22689102024587,-1.12540993396143,"Low","Q1","Below Median","OS","Overall Survival",153,"DAYS",1,0,2023-09-16,154,"BASELINE",0,"DAY 1",1,"N","Y","Low"
"PROTOCOL001-001-00171","PROTOCOL001","001-09",70,"F","ASIAN","NOT HISPANIC OR LATINO",70.9,153,"DRUG 100mg","DRUG 100mg",2023-04-16,30.3,1.69,100,0.5,150,96,0.85,21,21,"Y","Y","N",9.27099788269872,2.22689102024587,-1.12540993396143,"Low","Q1","Below Median","PFS","Progression-Free Survival",67,"DAYS",1,0,2023-06-22,68,"BASELINE",0,"DAY 1",1,"Y","N","Low"
"PROTOCOL001-001-00172","PROTOCOL001","001-08",75,"M","WHITE","NOT HISPANIC OR LATINO",88.5,161,"DRUG 50mg","DRUG 50mg",2023-06-20,34.1,1.92,50,1.33,60.1,65,0.74,23,24,"Y","Y","Y",16.7521166542503,2.81852461770532,-0.626043431145203,"Low","Q2","Below Median","OS","Overall Survival",264,"DAYS",1,0,2024-03-10,265,"BASELINE",0,"DAY 1",1,"N","Y","Low"
"PROTOCOL001-001-00172","PROTOCOL001","001-08",75,"M","WHITE","NOT HISPANIC OR LATINO",88.5,161,"DRUG 50mg","DRUG 50mg",2023-06-20,34.1,1.92,50,1.33,60.1,65,0.74,23,24,"Y","Y","Y",16.7521166542503,2.81852461770532,-0.626043431145203,"Low","Q2","Below Median","PFS","Progression-Free Survival",129,"DAYS",1,0,2023-10-27,130,"BASELINE",0,"DAY 1",1,"Y","N","Low"
"PROTOCOL001-001-00173","PROTOCOL001","001-08",64,"F","OTHER","HISPANIC OR LATINO",65.4,163,"DRUG 150mg","DRUG 50mg",2023-04-05,24.6,1.71,150,0.55,106.7,80,1.02,23,25,"Y","Y","Y",36.4156024488556,3.59499732150819,0.686499042016466,"High","Q4","Above Median","OS","Overall Survival",576,"DAYS",1,0,2024-11-01,577,"BASELINE",0,"DAY 1",1,"N","Y","High"
"PROTOCOL001-001-00173","PROTOCOL001","001-08",64,"F","OTHER","HISPANIC OR LATINO",65.4,163,"DRUG 150mg","DRUG 50mg",2023-04-05,24.6,1.71,150,0.55,106.7,80,1.02,23,25,"Y","Y","Y",36.4156024488556,3.59499732150819,0.686499042016466,"High","Q4","Above Median","PFS","Progression-Free Survival",49,"DAYS",1,0,2023-05-24,50,"BASELINE",0,"DAY 1",1,"Y","N","High"
"PROTOCOL001-001-00174","PROTOCOL001","001-08",62,"M","BLACK OR AFRICAN AMERICAN","NOT HISPANIC OR LATINO",73.9,187,"DRUG 100mg","DRUG 50mg",2023-03-27,21.1,1.98,100,0.91,88,77,0.71,30,32,"Y","Y","Y",19.624808070711,2.97679448378427,-0.43429057838163,"Medium","Q2","Below Median","OS","Overall Survival",524,"DAYS",1,0,2024-09-01,525,"BASELINE",0,"DAY 1",1,"N","Y","Medium"
"PROTOCOL001-001-00174","PROTOCOL001","001-08",62,"M","BLACK OR AFRICAN AMERICAN","NOT HISPANIC OR LATINO",73.9,187,"DRUG 100mg","DRUG 50mg",2023-03-27,21.1,1.98,100,0.91,88,77,0.71,30,32,"Y","Y","Y",19.624808070711,2.97679448378427,-0.43429057838163,"Medium","Q2","Below Median","PFS","Progression-Free Survival",462,"DAYS",1,0,2024-07-01,463,"BASELINE",0,"DAY 1",1,"Y","N","Medium"
"PROTOCOL001-001-00175","PROTOCOL001","001-09",68,"M","WHITE","NOT HISPANIC OR LATINO",87.7,158,"DRUG 50mg","DRUG 150mg",2023-06-24,35.1,1.89,50,0.64,137,114,0.82,30,20,"Y","Y","Y",6.77025131520023,1.91253820812591,-1.29233537733096,"Low","Q1","Below Median","OS","Overall Survival",351,"DAYS",1,0,2024-06-09,352,"BASELINE",0,"DAY 1",1,"N","Y","Low"
"PROTOCOL001-001-00175","PROTOCOL001","001-09",68,"M","WHITE","NOT HISPANIC OR LATINO",87.7,158,"DRUG 50mg","DRUG 150mg",2023-06-24,35.1,1.89,50,0.64,137,114,0.82,30,20,"Y","Y","Y",6.77025131520023,1.91253820812591,-1.29233537733096,"Low","Q1","Below Median","PFS","Progression-Free Survival",258,"DAYS",1,0,2024-03-08,259,"BASELINE",0,"DAY 1",1,"Y","N","Low"
"PROTOCOL001-001-00176","PROTOCOL001","001-08",63,"M","WHITE","NOT HISPANIC OR LATINO",84.3,161,"DRUG 50mg","DRUG 50mg",2023-05-10,32.5,1.88,50,0.96,93.9,92,0.49,36,24,"Y","Y","Y",13.2102612251857,2.5809938931446,-0.862463144974422,"Low","Q1","Below Median","OS","Overall Survival",87,"DAYS",1,0,2023-08-05,88,"BASELINE",0,"DAY 1",1,"N","Y","Low"
"PROTOCOL001-001-00176","PROTOCOL001","001-08",63,"M","WHITE","NOT HISPANIC OR LATINO",84.3,161,"DRUG 50mg","DRUG 50mg",2023-05-10,32.5,1.88,50,0.96,93.9,92,0.49,36,24,"Y","Y","Y",13.2102612251857,2.5809938931446,-0.862463144974422,"Low","Q1","Below Median","PFS","Progression-Free Survival",18,"DAYS",1,0,2023-05-28,19,"BASELINE",0,"DAY 1",1,"Y","N","Low"
"PROTOCOL001-001-00177","PROTOCOL001","001-10",62,"M","WHITE","NOT HISPANIC OR LATINO",45.2,172,"DRUG 50mg","DRUG 50mg",2023-03-09,15.3,1.52,50,0.7,70,130,0.97,30,24,"Y","Y","N",9.71853041890943,2.27403441557154,-1.09553702800599,"Low","Q1","Below Median","OS","Overall Survival",374,"DAYS",1,0,2024-03-17,375,"BASELINE",0,"DAY 1",1,"N","Y","Low"
"PROTOCOL001-001-00177","PROTOCOL001","001-10",62,"M","WHITE","NOT HISPANIC OR LATINO",45.2,172,"DRUG 50mg","DRUG 50mg",2023-03-09,15.3,1.52,50,0.7,70,130,0.97,30,24,"Y","Y","N",9.71853041890943,2.27403441557154,-1.09553702800599,"Low","Q1","Below Median","PFS","Progression-Free Survival",176,"DAYS",1,0,2023-09-01,177,"BASELINE",0,"DAY 1",1,"Y","N","Low"
"PROTOCOL001-001-00178","PROTOCOL001","001-02",40,"M","WHITE","NOT HISPANIC OR LATINO",84.5,184,"DRUG 50mg","DRUG 50mg",2023-05-25,25,2.08,50,1.23,95.4,77,0.96,30,23,"Y","Y","Y",10.5294871880824,2.35417962487286,-1.04140546585288,"Low","Q1","Below Median","OS","Overall Survival",491,"DAYS",0,1,2024-09-27,492,"BASELINE",0,"DAY 1",1,"N","Y","Low"
"PROTOCOL001-001-00178","PROTOCOL001","001-02",40,"M","WHITE","NOT HISPANIC OR LATINO",84.5,184,"DRUG 50mg","DRUG 50mg",2023-05-25,25,2.08,50,1.23,95.4,77,0.96,30,23,"Y","Y","Y",10.5294871880824,2.35417962487286,-1.04140546585288,"Low","Q1","Below Median","PFS","Progression-Free Survival",57,"DAYS",1,0,2023-07-21,58,"BASELINE",0,"DAY 1",1,"Y","N","Low"
"PROTOCOL001-001-00179","PROTOCOL001","001-04",77,"F","WHITE","NOT HISPANIC OR LATINO",45.8,175,"DRUG 150mg","DRUG 50mg",2023-06-29,15,1.54,150,0.78,43.7,69,0.51,22,28,"Y","Y","Y",54.3107902908364,3.9947229234201,1.88100719551232,"High","Q4","Above Median","OS","Overall Survival",218,"DAYS",1,0,2024-02-02,219,"BASELINE",0,"DAY 1",1,"N","Y","High"
"PROTOCOL001-001-00179","PROTOCOL001","001-04",77,"F","WHITE","NOT HISPANIC OR LATINO",45.8,175,"DRUG 150mg","DRUG 50mg",2023-06-29,15,1.54,150,0.78,43.7,69,0.51,22,28,"Y","Y","Y",54.3107902908364,3.9947229234201,1.88100719551232,"High","Q4","Above Median","PFS","Progression-Free Survival",59,"DAYS",1,0,2023-08-27,60,"BASELINE",0,"DAY 1",1,"Y","N","High"
"PROTOCOL001-001-00180","PROTOCOL001","001-10",64,"M","WHITE","NOT HISPANIC OR LATINO",82.2,173,"DRUG 150mg","DRUG 100mg",2023-05-27,27.5,1.96,150,1.01,85.9,80,1.32,22,13,"Y","Y","Y",38.2799941676723,3.64492741422508,0.810947644015057,"High","Q4","Above Median","OS","Overall Survival",187,"DAYS",1,0,2023-11-30,188,"BASELINE",0,"DAY 1",1,"N","Y","High"
"PROTOCOL001-001-00180","PROTOCOL001","001-10",64,"M","WHITE","NOT HISPANIC OR LATINO",82.2,173,"DRUG 150mg","DRUG 100mg",2023-05-27,27.5,1.96,150,1.01,85.9,80,1.32,22,13,"Y","Y","Y",38.2799941676723,3.64492741422508,0.810947644015057,"High","Q4","Above Median","PFS","Progression-Free Survival",113,"DAYS",1,0,2023-09-17,114,"BASELINE",0,"DAY 1",1,"Y","N","High"
"PROTOCOL001-001-00181","PROTOCOL001","001-05",64,"M","BLACK OR AFRICAN AMERICAN","NOT HISPANIC OR LATINO",101.7,163,"DRUG 100mg","DRUG 150mg",2023-07-09,38.3,2.06,100,1.31,81.9,126,0.58,33,19,"Y","Y","Y",51.5516770846135,3.94258474309796,1.69683571598644,"High","Q4","Above Median","OS","Overall Survival",187,"DAYS",1,0,2024-01-12,188,"BASELINE",0,"DAY 1",1,"N","Y","High"
"PROTOCOL001-001-00181","PROTOCOL001","001-05",64,"M","BLACK OR AFRICAN AMERICAN","NOT HISPANIC OR LATINO",101.7,163,"DRUG 100mg","DRUG 150mg",2023-07-09,38.3,2.06,100,1.31,81.9,126,0.58,33,19,"Y","Y","Y",51.5516770846135,3.94258474309796,1.69683571598644,"High","Q4","Above Median","PFS","Progression-Free Survival",134,"DAYS",1,0,2023-11-20,135,"BASELINE",0,"DAY 1",1,"Y","N","High"
"PROTOCOL001-001-00182","PROTOCOL001","001-10",83,"M","WHITE","NOT HISPANIC OR LATINO",88.3,179,"DRUG 100mg","DRUG 50mg",2023-04-24,27.6,2.07,100,0.57,122.6,59,0.53,34,24,"Y","Y","Y",13.9842987641322,2.63793518339693,-0.81079595044437,"Low","Q1","Below Median","OS","Overall Survival",272,"DAYS",1,0,2024-01-21,273,"BASELINE",0,"DAY 1",1,"N","Y","Low"
"PROTOCOL001-001-00182","PROTOCOL001","001-10",83,"M","WHITE","NOT HISPANIC OR LATINO",88.3,179,"DRUG 100mg","DRUG 50mg",2023-04-24,27.6,2.07,100,0.57,122.6,59,0.53,34,24,"Y","Y","Y",13.9842987641322,2.63793518339693,-0.81079595044437,"Low","Q1","Below Median","PFS","Progression-Free Survival",69,"DAYS",1,0,2023-07-02,70,"BASELINE",0,"DAY 1",1,"Y","N","Low"
"PROTOCOL001-001-00183","PROTOCOL001","001-05",54,"F","WHITE","NOT HISPANIC OR LATINO",58.5,156,"DRUG 100mg","DRUG 50mg",2023-05-05,24,1.58,100,0.94,63.2,88,0.9,43,20,"Y","Y","Y",33.7708639026289,3.51959841602552,0.5099620989439,"High","Q4","Above Median","OS","Overall Survival",119,"DAYS",1,0,2023-09-01,120,"BASELINE",0,"DAY 1",1,"N","Y","High"
"PROTOCOL001-001-00183","PROTOCOL001","001-05",54,"F","WHITE","NOT HISPANIC OR LATINO",58.5,156,"DRUG 100mg","DRUG 50mg",2023-05-05,24,1.58,100,0.94,63.2,88,0.9,43,20,"Y","Y","Y",33.7708639026289,3.51959841602552,0.5099620989439,"High","Q4","Above Median","PFS","Progression-Free Survival",79,"DAYS",1,0,2023-07-23,80,"BASELINE",0,"DAY 1",1,"Y","N","High"
"PROTOCOL001-001-00184","PROTOCOL001","001-07",69,"M","BLACK OR AFRICAN AMERICAN","NOT HISPANIC OR LATINO",70.5,174,"DRUG 150mg","DRUG 50mg",2023-04-26,23.3,1.85,150,0.72,96.6,99,0.98,37,22,"Y","Y","Y",40.0419966670931,3.68992882001423,0.928561740643913,"High","Q4","Above Median","OS","Overall Survival",188,"DAYS",1,0,2023-10-31,189,"BASELINE",0,"DAY 1",1,"N","Y","High"
"PROTOCOL001-001-00184","PROTOCOL001","001-07",69,"M","BLACK OR AFRICAN AMERICAN","NOT HISPANIC OR LATINO",70.5,174,"DRUG 150mg","DRUG 50mg",2023-04-26,23.3,1.85,150,0.72,96.6,99,0.98,37,22,"Y","Y","Y",40.0419966670931,3.68992882001423,0.928561740643913,"High","Q4","Above Median","PFS","Progression-Free Survival",27,"DAYS",1,0,2023-05-23,28,"BASELINE",0,"DAY 1",1,"Y","N","High"
"PROTOCOL001-001-00185","PROTOCOL001","001-04",64,"F","WHITE","NOT HISPANIC OR LATINO",87.5,159,"DRUG 150mg","DRUG 100mg",2023-03-25,34.6,1.9,150,1.04,75.5,87,1.18,16,22,"Y","Y","Y",29.0639048072931,3.36949701963461,0.195771431195775,"High","Q3","Above Median","OS","Overall Survival",220,"DAYS",1,0,2023-10-31,221,"BASELINE",0,"DAY 1",1,"N","Y","High"
"PROTOCOL001-001-00185","PROTOCOL001","001-04",64,"F","WHITE","NOT HISPANIC OR LATINO",87.5,159,"DRUG 150mg","DRUG 100mg",2023-03-25,34.6,1.9,150,1.04,75.5,87,1.18,16,22,"Y","Y","Y",29.0639048072931,3.36949701963461,0.195771431195775,"High","Q3","Above Median","PFS","Progression-Free Survival",152,"DAYS",1,0,2023-08-24,153,"BASELINE",0,"DAY 1",1,"Y","N","High"
"PROTOCOL001-001-00186","PROTOCOL001","001-10",57,"M","WHITE","NOT HISPANIC OR LATINO",40,169,"DRUG 50mg","DRUG 150mg",2023-05-24,14,1.42,50,0.69,66.8,89,0.76,39,17,"Y","Y","Y",23.3210071791628,3.14935455005063,-0.187568386305375,"Medium","Q3","Above Median","OS","Overall Survival",449,"DAYS",1,0,2024-08-15,450,"BASELINE",0,"DAY 1",1,"N","Y","Medium"
"PROTOCOL001-001-00186","PROTOCOL001","001-10",57,"M","WHITE","NOT HISPANIC OR LATINO",40,169,"DRUG 50mg","DRUG 150mg",2023-05-24,14,1.42,50,0.69,66.8,89,0.76,39,17,"Y","Y","Y",23.3210071791628,3.14935455005063,-0.187568386305375,"Medium","Q3","Above Median","PFS","Progression-Free Survival",317,"DAYS",1,0,2024-04-05,318,"BASELINE",0,"DAY 1",1,"Y","N","Medium"
"PROTOCOL001-001-00187","PROTOCOL001","001-02",56,"M","WHITE","HISPANIC OR LATINO",78.9,156,"DRUG 100mg","DRUG 150mg",2023-01-24,32.4,1.79,100,1.42,64.8,63,0.97,40,20,"Y","Y","Y",25.8526156815365,3.25241178274202,-0.0185829012549899,"Medium","Q3","Above Median","OS","Overall Survival",586,"DAYS",0,1,2024-09-01,587,"BASELINE",0,"DAY 1",1,"N","Y","Medium"
"PROTOCOL001-001-00187","PROTOCOL001","001-02",56,"M","WHITE","HISPANIC OR LATINO",78.9,156,"DRUG 100mg","DRUG 150mg",2023-01-24,32.4,1.79,100,1.42,64.8,63,0.97,40,20,"Y","Y","Y",25.8526156815365,3.25241178274202,-0.0185829012549899,"Medium","Q3","Above Median","PFS","Progression-Free Survival",57,"DAYS",1,0,2023-03-22,58,"BASELINE",0,"DAY 1",1,"Y","N","Medium"
"PROTOCOL001-001-00188","PROTOCOL001","001-03",44,"M","BLACK OR AFRICAN AMERICAN","NOT HISPANIC OR LATINO",42.4,173,"DRUG 150mg","DRUG 100mg",2023-06-24,14.2,1.48,150,1.29,43.8,84,0.83,35,31,"Y","Y","Y",47.2340287981542,3.85511458194598,1.40863163969258,"High","Q4","Above Median","OS","Overall Survival",137,"DAYS",1,0,2023-11-08,138,"BASELINE",0,"DAY 1",1,"N","Y","High"
"PROTOCOL001-001-00188","PROTOCOL001","001-03",44,"M","BLACK OR AFRICAN AMERICAN","NOT HISPANIC OR LATINO",42.4,173,"DRUG 150mg","DRUG 100mg",2023-06-24,14.2,1.48,150,1.29,43.8,84,0.83,35,31,"Y","Y","Y",47.2340287981542,3.85511458194598,1.40863163969258,"High","Q4","Above Median","PFS","Progression-Free Survival",79,"DAYS",1,0,2023-09-11,80,"BASELINE",0,"DAY 1",1,"Y","N","High"
"PROTOCOL001-001-00189","PROTOCOL001","001-08",65,"M","ASIAN","NOT HISPANIC OR LATINO",75.4,175,"DRUG 150mg","DRUG 100mg",2023-06-19,24.6,1.91,150,0.87,90.3,60,0.88,23,29,"Y","Y","Y",33.6362676389538,3.51560487885878,0.500977765512495,"High","Q4","Above Median","OS","Overall Survival",534,"DAYS",1,0,2024-12-04,535,"BASELINE",0,"DAY 1",1,"N","Y","High"
"PROTOCOL001-001-00189","PROTOCOL001","001-08",65,"M","ASIAN","NOT HISPANIC OR LATINO",75.4,175,"DRUG 150mg","DRUG 100mg",2023-06-19,24.6,1.91,150,0.87,90.3,60,0.88,23,29,"Y","Y","Y",33.6362676389538,3.51560487885878,0.500977765512495,"High","Q4","Above Median","PFS","Progression-Free Survival",106,"DAYS",1,0,2023-10-03,107,"BASELINE",0,"DAY 1",1,"Y","N","High"
"PROTOCOL001-001-00190","PROTOCOL001","001-02",27,"F","BLACK OR AFRICAN AMERICAN","NOT HISPANIC OR LATINO",66.4,165,"DRUG 50mg","DRUG 150mg",2023-04-10,24.4,1.73,50,0.99,89.5,81,1.06,37,11,"Y","Y","Y",9.45449292981007,2.24649007082671,-1.11316159480812,"Low","Q1","Below Median","OS","Overall Survival",532,"DAYS",1,0,2024-09-23,533,"BASELINE",0,"DAY 1",1,"N","Y","Low"
"PROTOCOL001-001-00190","PROTOCOL001","001-02",27,"F","BLACK OR AFRICAN AMERICAN","NOT HISPANIC OR LATINO",66.4,165,"DRUG 50mg","DRUG 150mg",2023-04-10,24.4,1.73,50,0.99,89.5,81,1.06,37,11,"Y","Y","Y",9.45449292981007,2.24649007082671,-1.11316159480812,"Low","Q1","Below Median","PFS","Progression-Free Survival",414,"DAYS",0,1,2024-05-28,415,"BASELINE",0,"DAY 1",1,"Y","N","Low"
"PROTOCOL001-001-00191","PROTOCOL001","001-05",67,"F","ASIAN","NOT HISPANIC OR LATINO",79.2,152,"DRUG 50mg","DRUG 100mg",2023-01-19,34.3,1.76,50,0.83,82.2,73,0.89,34,31,"Y","Y","Y",10.3605856891575,2.33800876893583,-1.05267968210504,"Low","Q1","Below Median","OS","Overall Survival",199,"DAYS",1,0,2023-08-06,200,"BASELINE",0,"DAY 1",1,"N","Y","Low"
"PROTOCOL001-001-00191","PROTOCOL001","001-05",67,"F","ASIAN","NOT HISPANIC OR LATINO",79.2,152,"DRUG 50mg","DRUG 100mg",2023-01-19,34.3,1.76,50,0.83,82.2,73,0.89,34,31,"Y","Y","Y",10.3605856891575,2.33800876893583,-1.05267968210504,"Low","Q1","Below Median","PFS","Progression-Free Survival",118,"DAYS",1,0,2023-05-17,119,"BASELINE",0,"DAY 1",1,"Y","N","Low"
"PROTOCOL001-001-00192","PROTOCOL001","001-02",62,"M","WHITE","NOT HISPANIC OR LATINO",79,162,"DRUG 100mg","DRUG 100mg",2023-04-10,30.1,1.84,100,1.1,77.8,52,1.75,32,17,"Y","Y","Y",25.0750019855306,3.22187141303167,-0.0704888051410687,"Medium","Q3","Above Median","OS","Overall Survival",237,"DAYS",1,0,2023-12-03,238,"BASELINE",0,"DAY 1",1,"N","Y","Medium"
"PROTOCOL001-001-00192","PROTOCOL001","001-02",62,"M","WHITE","NOT HISPANIC OR LATINO",79,162,"DRUG 100mg","DRUG 100mg",2023-04-10,30.1,1.84,100,1.1,77.8,52,1.75,32,17,"Y","Y","Y",25.0750019855306,3.22187141303167,-0.0704888051410687,"Medium","Q3","Above Median","PFS","Progression-Free Survival",114,"DAYS",1,0,2023-08-02,115,"BASELINE",0,"DAY 1",1,"Y","N","Medium"
"PROTOCOL001-001-00193","PROTOCOL001","001-05",57,"F","OTHER","NOT HISPANIC OR LATINO",88.3,159,"DRUG 50mg","DRUG 50mg",2023-02-09,34.9,1.9,50,1.04,83.2,74,0.99,18,29,"Y","Y","Y",7.27734989973533,1.98476677117387,-1.25848642312035,"Low","Q1","Below Median","OS","Overall Survival",317,"DAYS",1,0,2023-12-23,318,"BASELINE",0,"DAY 1",1,"N","Y","Low"
"PROTOCOL001-001-00193","PROTOCOL001","001-05",57,"F","OTHER","NOT HISPANIC OR LATINO",88.3,159,"DRUG 50mg","DRUG 50mg",2023-02-09,34.9,1.9,50,1.04,83.2,74,0.99,18,29,"Y","Y","Y",7.27734989973533,1.98476677117387,-1.25848642312035,"Low","Q1","Below Median","PFS","Progression-Free Survival",249,"DAYS",1,0,2023-10-16,250,"BASELINE",0,"DAY 1",1,"Y","N","Low"
"PROTOCOL001-001-00194","PROTOCOL001","001-04",40,"M","WHITE","NOT HISPANIC OR LATINO",67,175,"DRUG 50mg","DRUG 150mg",2023-03-12,21.9,1.81,50,1.01,92.1,61,0.71,43,10,"Y","Y","Y",14.0426925713423,2.64210215879614,-0.80689814956952,"Low","Q1","Below Median","OS","Overall Survival",313,"DAYS",1,0,2024-01-19,314,"BASELINE",0,"DAY 1",1,"N","Y","Low"
"PROTOCOL001-001-00194","PROTOCOL001","001-04",40,"M","WHITE","NOT HISPANIC OR LATINO",67,175,"DRUG 50mg","DRUG 150mg",2023-03-12,21.9,1.81,50,1.01,92.1,61,0.71,43,10,"Y","Y","Y",14.0426925713423,2.64210215879614,-0.80689814956952,"Low","Q1","Below Median","PFS","Progression-Free Survival",177,"DAYS",1,0,2023-09-05,178,"BASELINE",0,"DAY 1",1,"Y","N","Low"
"PROTOCOL001-001-00195","PROTOCOL001","001-04",45,"F","WHITE","NOT HISPANIC OR LATINO",70.7,170,"DRUG 50mg","DRUG 50mg",2023-01-24,24.5,1.82,50,0.66,120.1,79,0.88,27,25,"Y","Y","Y",6.80808667854972,1.9181111230569,-1.28980985759848,"Low","Q1","Below Median","OS","Overall Survival",430,"DAYS",0,1,2024-03-29,431,"BASELINE",0,"DAY 1",1,"N","Y","Low"
"PROTOCOL001-001-00195","PROTOCOL001","001-04",45,"F","WHITE","NOT HISPANIC OR LATINO",70.7,170,"DRUG 50mg","DRUG 50mg",2023-01-24,24.5,1.82,50,0.66,120.1,79,0.88,27,25,"Y","Y","Y",6.80808667854972,1.9181111230569,-1.28980985759848,"Low","Q1","Below Median","PFS","Progression-Free Survival",70,"DAYS",1,0,2023-04-04,71,"BASELINE",0,"DAY 1",1,"Y","N","Low"
"PROTOCOL001-001-00196","PROTOCOL001","001-04",71,"F","WHITE","NOT HISPANIC OR LATINO",109.9,177,"DRUG 50mg","DRUG 100mg",2023-03-15,35.1,2.26,50,0.51,150,97,0.97,14,29,"Y","Y","N",15.1209365594847,2.71608031059794,-0.734925100352762,"Low","Q1","Below Median","OS","Overall Survival",473,"DAYS",1,0,2024-06-30,474,"BASELINE",0,"DAY 1",1,"N","Y","Low"
"PROTOCOL001-001-00196","PROTOCOL001","001-04",71,"F","WHITE","NOT HISPANIC OR LATINO",109.9,177,"DRUG 50mg","DRUG 100mg",2023-03-15,35.1,2.26,50,0.51,150,97,0.97,14,29,"Y","Y","N",15.1209365594847,2.71608031059794,-0.734925100352762,"Low","Q1","Below Median","PFS","Progression-Free Survival",100,"DAYS",1,0,2023-06-23,101,"BASELINE",0,"DAY 1",1,"Y","N","Low"
"PROTOCOL001-001-00197","PROTOCOL001","001-08",54,"M","ASIAN","HISPANIC OR LATINO",87.1,174,"DRUG 50mg","DRUG 150mg",2023-05-13,28.8,2.02,50,0.69,150,55,0.62,29,23,"Y","Y","Y",10.452635201136,2.34685411897823,-1.0465353547275,"Low","Q1","Below Median","OS","Overall Survival",381,"DAYS",0,1,2024-05-28,382,"BASELINE",0,"DAY 1",1,"N","Y","Low"
"PROTOCOL001-001-00197","PROTOCOL001","001-08",54,"M","ASIAN","HISPANIC OR LATINO",87.1,174,"DRUG 50mg","DRUG 150mg",2023-05-13,28.8,2.02,50,0.69,150,55,0.62,29,23,"Y","Y","Y",10.452635201136,2.34685411897823,-1.0465353547275,"Low","Q1","Below Median","PFS","Progression-Free Survival",199,"DAYS",1,0,2023-11-28,200,"BASELINE",0,"DAY 1",1,"Y","N","Low"
"PROTOCOL001-001-00198","PROTOCOL001","001-06",62,"F","BLACK OR AFRICAN AMERICAN","NOT HISPANIC OR LATINO",62.6,164,"DRUG 50mg","DRUG 50mg",2023-05-30,23.3,1.68,50,1.18,48.9,47,0.79,23,40,"Y","Y","Y",12.7174707500501,2.54297669773573,-0.895357029392542,"Low","Q1","Below Median","OS","Overall Survival",492,"DAYS",0,1,2024-10-03,493,"BASELINE",0,"DAY 1",1,"N","Y","Low"
"PROTOCOL001-001-00198","PROTOCOL001","001-06",62,"F","BLACK OR AFRICAN AMERICAN","NOT HISPANIC OR LATINO",62.6,164,"DRUG 50mg","DRUG 50mg",2023-05-30,23.3,1.68,50,1.18,48.9,47,0.79,23,40,"Y","Y","Y",12.7174707500501,2.54297669773573,-0.895357029392542,"Low","Q1","Below Median","PFS","Progression-Free Survival",353,"DAYS",1,0,2024-05-17,354,"BASELINE",0,"DAY 1",1,"Y","N","Low"
"PROTOCOL001-001-00199","PROTOCOL001","001-10",58,"M","BLACK OR AFRICAN AMERICAN","NOT HISPANIC OR LATINO",84.2,167,"DRUG 50mg","DRUG 50mg",2023-03-12,30.2,1.93,50,1.11,86.4,76,1.11,26,21,"Y","Y","Y",12.199121428156,2.50136393506049,-0.929956973066173,"Low","Q1","Below Median","OS","Overall Survival",429,"DAYS",1,0,2024-05-14,430,"BASELINE",0,"DAY 1",1,"N","Y","Low"
"PROTOCOL001-001-00199","PROTOCOL001","001-10",58,"M","BLACK OR AFRICAN AMERICAN","NOT HISPANIC OR LATINO",84.2,167,"DRUG 50mg","DRUG 50mg",2023-03-12,30.2,1.93,50,1.11,86.4,76,1.11,26,21,"Y","Y","Y",12.199121428156,2.50136393506049,-0.929956973066173,"Low","Q1","Below Median","PFS","Progression-Free Survival",232,"DAYS",1,0,2023-10-30,233,"BASELINE",0,"DAY 1",1,"Y","N","Low"
"PROTOCOL001-001-00200","PROTOCOL001","001-02",64,"M","WHITE","NOT HISPANIC OR LATINO",75.1,168,"DRUG 50mg","DRUG 150mg",2023-04-01,26.6,1.85,50,0.92,86.2,61,0.2,20,46,"Y","Y","Y",19.7125238216078,2.98125416074031,-0.428435530613398,"Medium","Q2","Below Median","OS","Overall Survival",432,"DAYS",1,0,2024-06-06,433,"BASELINE",0,"DAY 1",1,"N","Y","Medium"
"PROTOCOL001-001-00200","PROTOCOL001","001-02",64,"M","WHITE","NOT HISPANIC OR LATINO",75.1,168,"DRUG 50mg","DRUG 150mg",2023-04-01,26.6,1.85,50,0.92,86.2,61,0.2,20,46,"Y","Y","Y",19.7125238216078,2.98125416074031,-0.428435530613398,"Medium","Q2","Below Median","PFS","Progression-Free Survival",402,"DAYS",0,1,2024-05-07,403,"BASELINE",0,"DAY 1",1,"Y","N","Medium"
